ID,exp_start,block_start,practice,cycle,display_start,trial_start,trial_end,RT,word,modality,correction,answer,points
11,77.66745319999973,153.12873599999966,practice,0,208.7616455999996,214.7534925,220.00893209999958,223.69562880000012,fiets,geluiden,0,rijden,0
11,77.66745319999973,153.12873599999966,practice,0,229.03951909999978,231.61245379999946,233.65025839999998,235.87257640000007,fiets,geluiden,1,fiets,0
11,77.66745319999973,153.12873599999966,practice,0,237.1408749000002,242.5781151000001,246.19623739999952,249.5914284999999,klok,geluiden,0,klok,0
11,77.66745319999973,153.12873599999966,none,0,254.12687379999988,264.61135000000013,268.476858,274.90324559999954,ei,geluiden,0,ballon,0
11,77.66745319999973,153.12873599999966,none,0,278.6218695999996,279.57262869999977,284.17377789999955,301.30706519999967,ei,geluiden,1,uil,0
11,77.66745319999973,153.12873599999966,none,0,306.7100559999999,310.59356190000017,326.2620133999999,330.97810649999974,ei,geluiden,2,koekoeksklok,0
11,77.66745319999973,153.12873599999966,none,0,336.68899969999984,339.23624539999946,341.82724700000017,351.46458299999995,goed,geluiden,0,genieten,0
11,77.66745319999973,153.12873599999966,none,0,354.7749938999996,356.7185177000001,359.42044609999994,362.4745899999998,goed,geluiden,1,tevreden,0
11,77.66745319999973,153.12873599999966,none,0,366.0851358,369.40511549999974,371.6020861999996,389.7283944999999,goed,geluiden,2,lekker,0
11,77.66745319999973,153.12873599999966,none,0,393.80570439999974,397.16768199999933,399.8029885999995,403.6138046999995,blij,geluiden,0,giechelen,0
11,77.66745319999973,153.12873599999966,none,0,407.69921650000015,409.1680133,413.3460392999996,420.22509099999934,blij,geluiden,1,verrassing,0
11,77.66745319999973,153.12873599999966,none,0,424.0521669,425.04476559999966,427.6387985000001,442.5446450999998,blij,geluiden,2,trots,0
11,77.66745319999973,153.12873599999966,none,0,448.1391211,454.37863070000003,458.4199318000001,462.01406229999975,man,geluiden,0,motor,0
11,77.66745319999973,153.12873599999966,none,0,465.9664286999996,467.434268,470.3351751,472.7573344000002,man,geluiden,1,boos,0
11,77.66745319999973,153.12873599999966,none,0,477.0267404999995,480.1494370999999,485.34099699999933,496.5857562000001,man,geluiden,2,man,0.5
11,77.66745319999973,153.12873599999966,none,0,498.4458780999994,502.2072060999999,505.74492329999975,507.8875094999994,verdrietig,geluiden,0,huilen,0
11,77.66745319999973,153.12873599999966,none,0,512.0148582000002,512.8260300000002,515.9542262999994,518.9392849999995,verdrietig,geluiden,1,sniffen,0
11,77.66745319999973,153.12873599999966,none,0,522.5164923000002,523.7152846999998,527.3701761000002,530.2825514999995,verdrietig,geluiden,2,verdrietig,0.5
11,77.66745319999973,153.12873599999966,none,0,531.1258762999996,534.0961441999998,538.2760301999997,540.4590588000001,rennen,geluiden,0,rennen,2
11,77.66745319999973,153.12873599999966,none,0,544.9191476999995,546.7012415999998,549.3251460000001,552.3033141999995,gooien,geluiden,0,gooien,2
11,77.66745319999973,153.12873599999966,practice,1,604.1946889999999,606.1518669999996,610.1330735000001,613.2778951999999,eend,geluiden,0,eend,0
11,77.66745319999973,153.12873599999966,practice,1,614.1297772999997,617.7941462999997,622.8820589999996,625.2715425999995,sneeuw,geluiden,0,zee,0
11,77.66745319999973,153.12873599999966,practice,1,664.1539201999994,666.1904839999997,670.8697886999998,673.8203021999998,sneeuw,geluiden,1,blazen,0
11,77.66745319999973,153.12873599999966,practice,1,678.2231542999998,681.2887042000002,687.0191655999997,698.3241380999998,sneeuw,geluiden,2,regen,0
11,77.66745319999973,153.12873599999966,none,1,705.7596537,709.3136571999994,712.4466926999994,719.5437984,groot,geluiden,0,oneens,0
11,77.66745319999973,153.12873599999966,none,1,724.3878869999999,726.4869899999994,731.2471787999993,750.3980455999999,groot,geluiden,1,goed,0
11,77.66745319999973,153.12873599999966,none,1,753.3007742999998,755.5168776,759.4332991000001,762.9583966999999,groot,geluiden,2,twijfelen,0
11,77.66745319999973,153.12873599999966,none,1,766.3185757000001,769.6809193999998,773.2704950999996,776.2438057999998,vogel,geluiden,0,vogel,2
11,77.66745319999973,153.12873599999966,none,1,777.0283330000002,779.6496126000002,782.7792205999995,785.0118180999998,zoemen,geluiden,0,bij,0
11,77.66745319999973,153.12873599999966,none,1,788.3806949,789.5192824999995,793.3958354999995,795.1964975000001,zoemen,geluiden,1,mug,0
11,77.66745319999973,153.12873599999966,none,1,798.1985316,799.3545439999998,803.5590793000001,806.5649709999998,zoemen,geluiden,2,wesp,0
11,77.66745319999973,153.12873599999966,none,1,810.1592199999996,814.0708476999998,820.3430675,826.4760956999999,vuur,geluiden,0,stikken,0
11,77.66745319999973,153.12873599999966,none,1,830.4535387999995,831.6868436999994,841.2469499999997,848.2291814999999,vuur,geluiden,1,regen,0
11,77.66745319999973,153.12873599999966,none,1,851.8896657999994,860.4774705,866.9048662999994,883.1176662999997,vuur,geluiden,2,vallen,0
11,77.66745319999973,153.12873599999966,none,1,886.7033198999998,892.4749833999995,897.1900028,900.6704690999995,hoog,geluiden,0,huilen,0
11,77.66745319999973,153.12873599999966,none,1,904.5390186999994,905.8321434999998,913.8215714999997,922.5824727999998,hoog,geluiden,1,onbegrip,0
11,77.66745319999973,153.12873599999966,none,1,926.0261417000002,928.5760884000001,933.4533059999994,940.0933195999996,hoog,geluiden,2,verdriet,0
11,77.66745319999973,153.12873599999966,none,1,943.2200591000001,947.5158752999996,952.8575692999993,955.9869570000001,vangen,geluiden,0,slaan,0
11,77.66745319999973,153.12873599999966,none,1,959.8476345999998,961.2777476000001,965.9138327000001,969.1639041999997,vangen,geluiden,1,tillen,0
11,77.66745319999973,153.12873599999966,none,1,972.6159374999997,975.4578885000001,979.5817767999997,988.3752243999998,vangen,geluiden,2,zweven,0
11,77.66745319999973,153.12873599999966,none,1,992.1355667999997,995.1114557000001,999.0893292000001,1001.1935827999996,eten,geluiden,0,eten,2
11,77.66745319999973,1021.0645896999995,practice,0,1067.8379912,1072.2460180999997,1078.0079594,1080.6553349999995,geheim,combinatie,0,roddelen,0
11,77.66745319999973,1021.0645896999995,practice,0,1084.2407702,1085.9052015999996,1088.8752083999998,1104.0421343999997,geheim,combinatie,1,geheim,0
11,77.66745319999973,1021.0645896999995,practice,0,1105.0851713000002,1107.4706692999998,1112.6746998999997,1115.0687217999994,telefoon,combinatie,0,telefoon,0
11,77.66745319999973,1021.0645896999995,none,0,1118.3541000999994,1120.5841639,1124.5232388999993,1128.6044920999993,scherp,combinatie,0,snee,0
11,77.66745319999973,1021.0645896999995,none,0,1132.4475929999999,1134.9982842,1139.7610694999994,1142.4144318999997,scherp,combinatie,1,snijden,0
11,77.66745319999973,1021.0645896999995,none,0,1145.6746715999998,1148.9817112,1154.1676587000002,1157.6165365999996,scherp,combinatie,2,scherp,0.5
11,77.66745319999973,1021.0645896999995,none,0,1158.6103616,1161.9691677,1166.5897384999998,1171.9695129000002,staart,combinatie,0,scheet,0
11,77.66745319999973,1021.0645896999995,none,0,1177.9796101000002,1179.5276095999998,1184.9714990000002,1186.5958638000002,staart,combinatie,1,staart,1
11,77.66745319999973,1021.0645896999995,none,0,1187.3058184000001,1190.3161296999997,1195.1472141999993,1198.4726835000001,vliegen,combinatie,0,vliegen,2
11,77.66745319999973,1021.0645896999995,none,0,1199.1658743999997,1201.4462323999996,1205.5248548,1208.7158387,jagen,combinatie,0,jagen,2
11,77.66745319999973,1021.0645896999995,none,0,1209.5087437000002,1211.4601188999995,1215.3911674,1217.3593117,slapen,combinatie,0,slapen,2
11,77.66745319999973,1021.0645896999995,none,0,1218.0187772999998,1220.9781463999998,1224.4364625999997,1227.3186555000002,zuigen,combinatie,0,slurpen,0
11,77.66745319999973,1021.0645896999995,none,0,1230.0041101999996,1231.3490123000001,1234.6681786999998,1240.0204809999996,zuigen,combinatie,1,zuigen,1
11,77.66745319999973,1021.0645896999995,none,0,1240.7136316999995,1242.0185488999996,1250.3760186,1252.6140126,wind,combinatie,0,wind,2
11,77.66745319999973,1021.0645896999995,practice,1,1285.9621319999997,1287.8214877999999,1289.0211055999998,1292.3781196,glimlach,combinatie,0,lachen,0
11,77.66745319999973,1021.0645896999995,practice,1,1295.3965291999993,1297.3789981999998,1301.1643135999993,1303.7966249,glimlach,combinatie,1,blij,0
11,77.66745319999973,1021.0645896999995,practice,1,1306.7316089999995,1308.3669264999999,1312.4047334999996,1316.2565206,glimlach,combinatie,2,glimlach,0
11,77.66745319999973,1021.0645896999995,practice,1,1317.0499295,1319.8472592999997,1322.8713141999997,1327.5332201,juichen,combinatie,0,vieren,0
11,77.66745319999973,1021.0645896999995,practice,1,1330.2687964999996,1331.2218236999997,1334.9713649999994,1340.0767375999994,juichen,combinatie,1,aanmoedigen,0
11,77.66745319999973,1021.0645896999995,practice,1,1343.0958411000001,1345.0033285,1349.2022824999995,1352.1707830999994,juichen,combinatie,2,dansen,0
11,77.66745319999973,1021.0645896999995,none,1,1357.1391926999995,1361.5345982,1365.7030937999998,1368.5643298999994,luidruchtig,combinatie,0,schreeuwen,0
11,77.66745319999973,1021.0645896999995,none,1,1371.3915742,1372.5340442999996,1376.0149879,1378.1074677999995,luidruchtig,combinatie,1,roepen,0
11,77.66745319999973,1021.0645896999995,none,1,1380.8176749999993,1381.90783,1386.0549886999997,1390.7007907999996,luidruchtig,combinatie,2,aanvallen,0
11,77.66745319999973,1021.0645896999995,none,1,1394.0612327,1399.1573171999999,1404.6214093999997,1407.7451372999994,berg,combinatie,0,klimmen,0
11,77.66745319999973,1021.0645896999995,none,1,1410.3226347,1412.2389746,1416.6865700999997,1421.7144858000001,berg,combinatie,1,bergwandeling,0
11,77.66745319999973,1021.0645896999995,none,1,1424.8580571000002,1426.2049176,1429.8325890999995,1433.4905432999994,berg,combinatie,2,berg,0.5
11,77.66745319999973,1021.0645896999995,none,1,1434.1339391000001,1436.2450067,1439.9734142999996,1441.9333460999997,dik,combinatie,0,dik,2
11,77.66745319999973,1021.0645896999995,none,1,1442.4179980999997,1444.1208374999997,1448.0087225999996,1450.3263845000001,vechten,combinatie,0,vechten,2
11,77.66745319999973,1021.0645896999995,none,1,1450.9362780000001,1452.6574931999994,1455.7771207999995,1458.2525813000002,geven,combinatie,0,geven,2
11,77.66745319999973,1021.0645896999995,none,1,1458.8295260999994,1460.4401425999995,1464.0133255,1468.5957773999999,ruiken,combinatie,0,ruiken,2
11,77.66745319999973,1021.0645896999995,none,1,1469.3386740999995,1471.5151684000002,1475.0029290000002,1481.76429,staan,combinatie,0,tevreden,0
11,77.66745319999973,1021.0645896999995,none,1,1484.5999032,1485.5263356999994,1488.8727273999993,1491.0824682000002,staan,combinatie,1,staan,1
11,77.66745319999973,1493.8674071999994,practice,0,1540.0662354999995,1542.9974475999998,1549.6326478,1552.0914029999994,zingen,gebaren,0,zingen,0
11,77.66745319999973,1493.8674071999994,practice,0,1552.6015903999996,1554.2089403,1557.3164731999996,1560.2679882000002,zwaaien,gebaren,0,zwaaien,0
11,77.66745319999973,1493.8674071999994,none,0,1562.9026431000002,1566.5619387999996,1572.4798249999994,1578.6873730999996,kind,gebaren,0,dansen,0
11,77.66745319999973,1493.8674071999994,none,0,1582.1472802999997,1583.0549971,1590.3297568999997,1592.6640505999994,kind,gebaren,1,baby,0
11,77.66745319999973,1493.8674071999994,none,0,1595.6079025,1596.5924490999996,1600.4369883,1605.3325372999998,kind,gebaren,2,kind,0.5
11,77.66745319999973,1493.8674071999994,none,0,1606.0176827999994,1607.2155204,1610.5565453,1613.6838458000002,misschien,gebaren,0,twijfelen,0
11,77.66745319999973,1493.8674071999994,none,0,1616.4443807999996,1617.2592064,1619.9748808999993,1630.5362538999998,misschien,gebaren,1,besluiteloos,0
11,77.66745319999973,1493.8674071999994,none,0,1633.9464533999999,1635.0317221999994,1639.5203246,1644.0047820999998,misschien,gebaren,2,matig,0
11,77.66745319999973,1493.8674071999994,none,0,1647.7905978,1649.7749413000001,1653.8395559,1657.1735503999998,bang,gebaren,0,schrikken,0
11,77.66745319999973,1493.8674071999994,none,0,1659.6338962999998,1660.4454962,1664.4114713999998,1687.5113778999994,bang,gebaren,1,terugdeinzen,0
11,77.66745319999973,1493.8674071999994,none,0,1691.0882993999994,1693.9602766999997,1699.8923482,1702.3718640999996,bang,gebaren,2,bang,0.5
11,77.66745319999973,1493.8674071999994,none,0,1703.1324175,1704.4161102999997,1708.4204969000002,1710.9564387,stil,gebaren,0,stil,2
11,77.66745319999973,1493.8674071999994,none,0,1711.6914700999996,1712.8392613999995,1716.6105669999997,1718.6243300999995,kauwen,gebaren,0,kaak,0
11,77.66745319999973,1493.8674071999994,none,0,1721.4344643999993,1722.3839367,1726.9941380999999,1729.3592159999998,kauwen,gebaren,1,praten,0
11,77.66745319999973,1493.8674071999994,none,0,1732.2696574000001,1733.2388992999995,1739.3771106999993,1741.4026273,kauwen,gebaren,2,kauwen,0.5
11,77.66745319999973,1493.8674071999994,none,0,1741.9787926,1744.5615911999994,1749.3635341,1753.0638307,grommen,gebaren,0,leeuw,0
11,77.66745319999973,1493.8674071999994,none,0,1755.9564200999994,1756.9442676999997,1760.3589272,1765.9402903,grommen,gebaren,1,tanden,0
11,77.66745319999973,1493.8674071999994,none,0,1768.5913949999995,1770.3706794,1775.8126831,1778.7163412999998,grommen,gebaren,2,vampier,0
11,77.66745319999973,1493.8674071999994,none,0,1781.5435259999995,1782.7123284999998,1787.4760436999995,1791.2599537999995,zwemmen,gebaren,0,zwemmen,2
11,77.66745319999973,1493.8674071999994,practice,1,1835.9844469999998,1838.3815651999994,1843.3207346,1846.6598051,bal,gebaren,0,gooien,0
11,77.66745319999973,1493.8674071999994,practice,1,1849.7782483,1850.1945022,1853.7878983,1859.3118033,bal,gebaren,1,handbal,0
11,77.66745319999973,1493.8674071999994,practice,1,1861.9471576999995,1863.1535838999998,1866.2075833,1868.0465887,bal,gebaren,2,bal,0
11,77.66745319999973,1493.8674071999994,practice,1,1868.7231836,1870.8847731999995,1876.0991601999995,1879.0060733,vliegtuig,gebaren,0,zweven,0
11,77.66745319999973,1493.8674071999994,practice,1,1881.7745389000002,1882.8700975000002,1890.116868,1900.9594332999995,vliegtuig,gebaren,1,zweefvliegtuig,0
11,77.66745319999973,1493.8674071999994,practice,1,1905.1120787,1905.8560263999998,1910.6167003,1913.6195909999997,vliegtuig,gebaren,2,vliegen,0
11,77.66745319999973,1493.8674071999994,none,1,1920.0884422999998,1922.2646826999999,1925.3547079,1927.8717246999995,ik,gebaren,0,hoofd,0
11,77.66745319999973,1493.8674071999994,none,1,1930.2406302,1931.3908043000001,1938.6474300999998,1947.4832724999997,ik,gebaren,1,persoonlijkheid,0
11,77.66745319999973,1493.8674071999994,none,1,1950.5346591999996,1951.9452283,1958.4873153999997,1963.6020496,ik,gebaren,2,ikzelf,0.5
11,77.66745319999973,1493.8674071999994,none,1,1967.9379969000001,1970.8053759999993,1975.0916355,1976.6039227,dood,gebaren,0,dood,2
11,77.66745319999973,1493.8674071999994,none,1,1977.3888705999998,1980.3367049999997,1985.9451377999994,1990.3558905999998,ver,gebaren,0,kijken,0
11,77.66745319999973,1493.8674071999994,none,1,1992.6993220999993,1993.6048636999994,1998.6323951999993,2001.2742492999996,ver,gebaren,1,ver weg,1
11,77.66745319999973,1493.8674071999994,none,1,2005.6434958999998,2008.6766091,2010.4640724,2014.1928754,vis,gebaren,0,vis,2
11,77.66745319999973,1493.8674071999994,none,1,2014.2858593,2020.3971634999998,2026.3687444999996,2030.0034942000002,vlieg,gebaren,0,sprinkelen,0
11,77.66745319999973,1493.8674071999994,none,1,2034.0226920999994,2035.1350149,2039.8068560000002,2046.7059543999994,vlieg,gebaren,1,zweven,0
11,77.66745319999973,1493.8674071999994,none,1,2050.3748141999995,2051.4705333,2057.5621796999994,2062.8499707,vlieg,gebaren,2,vogeltje,0
11,77.66745319999973,1493.8674071999994,none,1,2066.0436162999995,2068.1291765999995,2075.7983864,2077.8353312,langzaam,gebaren,0,traag,2
11,77.66745319999973,1493.8674071999994,none,1,2083.5378217999996,2085.6042937,2090.0544709999995,2092.2792803,springen,gebaren,0,dansen,0
11,77.66745319999973,1493.8674071999994,none,1,2104.8074894,2105.8811582,2109.5398706999995,2112.8407239999997,springen,gebaren,1,springen,1
