ID,exp_start,block_start,practice,cycle,display_start,trial_start,trial_end,RT,word,modality,correction,answer,points
14,12.223596499999985,328.9509744999996,practice,0,425.39867460000005,427.99179129999993,432.59631829999944,436.38224869999976,bal,combinatie,0,basketballen,0
14,12.223596499999985,328.9509744999996,practice,0,440.2269461999995,443.1174463999996,446.93451149999964,450.0843525,bal,combinatie,1,rugby,0
14,12.223596499999985,328.9509744999996,practice,0,453.99486119999983,455.3908905999997,462.0235143,463.93634569999995,bal,combinatie,2,sporten,0
14,12.223596499999985,328.9509744999996,practice,0,467.64663089999976,468.8399535999997,473.57294790000014,475.1296767999993,fiets,combinatie,0,fietsen,0
14,12.223596499999985,328.9509744999996,practice,0,478.64030490000005,480.2648521000001,484.2890422999999,485.8393191999994,fiets,combinatie,1,fiets,0
14,12.223596499999985,328.9509744999996,none,0,494.5008380999998,498.4079488999996,504.0756281999993,505.3089997999996,ei,combinatie,0,kip,0
14,12.223596499999985,328.9509744999996,none,0,508.4525071999997,509.2081357999996,515.0745534999996,522.1198920999996,ei,combinatie,1,boerderij,0
14,12.223596499999985,328.9509744999996,none,0,525.4303512999995,530.0975825999994,534.3657660999997,535.4645160999999,ei,combinatie,2,ei,0.5
14,12.223596499999985,328.9509744999996,none,0,536.4654178999999,537.7297001999996,542.5330156,544.1898486999999,zwaar,combinatie,0,tillen,0
14,12.223596499999985,328.9509744999996,none,0,547.7423749999998,550.2097165999994,554.6061822000001,557.6834801999994,zwaar,combinatie,1,uitgeput,0
14,12.223596499999985,328.9509744999996,none,0,561.3861491999996,563.9659510000001,568.9777464999997,570.9860670999997,zwaar,combinatie,2,zwaar,0.5
14,12.223596499999985,328.9509744999996,none,0,571.8621944999995,574.5061957999997,579.7345387999994,581.5703063999999,hoog,combinatie,0,hoog,2
14,12.223596499999985,328.9509744999996,none,0,582.3471345999997,586.0508544999993,591.1549298999998,592.4638488999999,man,combinatie,0,sterk,0
14,12.223596499999985,328.9509744999996,none,0,595.5492469999999,601.9794388,610.8620682000001,612.0415517000001,man,combinatie,1,stoer,0
14,12.223596499999985,328.9509744999996,none,0,615.5100717999994,616.4370301999998,627.6725022,630.9862194999996,man,combinatie,2,man,0.5
14,12.223596499999985,328.9509744999996,none,0,631.7625097999999,635.3786190000001,642.5314976999998,644.3385886999995,langzaam,combinatie,0,langzaam,2
14,12.223596499999985,328.9509744999996,none,0,645.1399338000001,647.5935896999999,650.8106743999997,652.4224410999996,drinken,combinatie,0,drinken,2
14,12.223596499999985,328.9509744999996,none,0,653.0074808999998,655.4863146999996,661.1458089999996,662.6158372999998,wind,combinatie,0,vlieger,0
14,12.223596499999985,328.9509744999996,none,0,665.4342450999993,666.7657565,670.1582122999998,671.3420560999994,wind,combinatie,1,wind,1
14,12.223596499999985,328.9509744999996,practice,1,742.1873425999993,745.7994592999994,747.9962587,749.2785384999997,eend,combinatie,0,eend,0
14,12.223596499999985,328.9509744999996,practice,1,749.9299518999997,751.4009533999997,755.4125570999995,765.4979518,klok,combinatie,0,tandwiel,0
14,12.223596499999985,328.9509744999996,practice,1,769.5745981999999,770.6647787000002,776.6430389999996,778.6080708999998,klok,combinatie,1,klok,0
14,12.223596499999985,328.9509744999996,none,1,788.8945770999999,792.7019725999999,795.1374448999995,796.8106696999994,blij,combinatie,0,goed,0
14,12.223596499999985,328.9509744999996,none,1,798.9624952999993,803.4395524000001,806.3459110999993,811.7883684999997,blij,combinatie,1,lach,0
14,12.223596499999985,328.9509744999996,none,1,814.5650360999998,819.4404178999994,822.5188773,824.1984420999997,blij,combinatie,2,blij,0.5
14,12.223596499999985,328.9509744999996,none,1,824.7577198999998,828.1068172999994,831.5152227999997,832.9162425999994,oud,combinatie,0,oud,2
14,12.223596499999985,328.9509744999996,none,1,833.3511743999998,835.8999176999996,839.0618742999995,843.7177268999994,ziek,combinatie,0,griep,0
14,12.223596499999985,328.9509744999996,none,1,846.0197307999997,849.2007008,853.3553671999998,854.6948538999995,ziek,combinatie,1,ziek,1
14,12.223596499999985,328.9509744999996,none,1,855.2375056000001,860.0572818999999,865.7307412999999,876.0815563999995,verbranden,combinatie,0,kastje,0
14,12.223596499999985,328.9509744999996,none,1,880.4916594999995,886.2336983999994,889.2470671000001,891.8831758999995,verbranden,combinatie,1,heet,0
14,12.223596499999985,328.9509744999996,none,1,894.3603794999999,896.9454569,900.4933609,905.5100363000001,verbranden,combinatie,2,pijn,0
14,12.223596499999985,328.9509744999996,none,1,908.2035196999996,912.7167499999996,915.6545361999997,918.1454589999994,vangen,combinatie,0,vangen,2
14,12.223596499999985,328.9509744999996,none,1,918.5968315999999,921.5648166000001,924.9377797999996,926.5051091999994,zwemmen,combinatie,0,zwemmen,2
14,12.223596499999985,328.9509744999996,none,1,927.3900157999997,930.1720553999994,933.1536525000001,935.7063976,fluisteren,combinatie,0,fluisteren,2
14,12.223596499999985,938.0251602999997,practice,0,988.7411071999995,992.7586238999993,999.0740723999997,1000.8082279999999,sneeuw,gebaren,0,sneeuw,0
14,12.223596499999985,938.0251602999997,practice,0,1001.5009046999994,1003.6367061000001,1006.2500507999994,1008.6838892999995,zwaaien,gebaren,0,begroeten,0
14,12.223596499999985,938.0251602999997,practice,0,1010.5104142999999,1012.1496044999994,1014.7046553,1016.6686040999994,zwaaien,gebaren,1,zwaaien,0
14,12.223596499999985,938.0251602999997,none,0,1022.2621677999996,1024.6287794,1026.9841251999997,1028.2372219999997,boos,gebaren,0,boos,2
14,12.223596499999985,938.0251602999997,none,0,1028.8800646,1031.0345406999995,1034.3149032000001,1035.4045766999998,groot,gebaren,0,groot,2
14,12.223596499999985,938.0251602999997,none,0,1035.9307774999997,1041.7964219999994,1044.8574932000001,1045.7060000000001,kat,gebaren,0,kat,2
14,12.223596499999985,938.0251602999997,none,0,1046.2409744999995,1048.3431458999994,1054.0329081,1055.3741579999996,berg,gebaren,0,berg,2
14,12.223596499999985,938.0251602999997,none,0,1055.8006808,1057.3670429999993,1059.9625250999998,1061.0750394999995,sterk,gebaren,0,sterk,2
14,12.223596499999985,938.0251602999997,none,0,1061.4350085999995,1062.8506157000002,1065.6422185000001,1066.6431106,eten,gebaren,0,eten,2
14,12.223596499999985,938.0251602999997,none,0,1067.0688494999995,1068.6132005,1071.5443759,1073.7851480999998,horen,gebaren,0,horen,2
14,12.223596499999985,938.0251602999997,practice,1,1111.3841224999996,1114.1783798999995,1117.9577651999998,1121.3256130999998,vliegtuig,gebaren,0,vliegen,0
14,12.223596499999985,938.0251602999997,practice,1,1124.2939376999993,1127.1451419999994,1135.0123776,1136.9280437999996,vliegtuig,gebaren,1,vliegtuig,0
14,12.223596499999985,938.0251602999997,practice,1,1137.5459327999997,1139.3235325999995,1141.8896079999995,1144.3040501999994,telefoon,gebaren,0,bellen,0
14,12.223596499999985,938.0251602999997,practice,1,1146.8062780999999,1148.6720146999996,1152.1774113000001,1154.3972393999993,telefoon,gebaren,1,telefoon,0
14,12.223596499999985,938.0251602999997,none,1,1157.5488416999997,1160.1623884,1164.0435388999995,1168.3742654999996,bitter,gebaren,0,vies,0
14,12.223596499999985,938.0251602999997,none,1,1170.9176189,1174.3828767999994,1179.1630073999995,1180.9344967999996,bitter,gebaren,1,zuur,0
14,12.223596499999985,938.0251602999997,none,1,1185.6531266000002,1187.8929160999996,1194.0866270999995,1209.6803070999995,bitter,gebaren,2,vies eten,0
14,12.223596499999985,938.0251602999997,none,1,1213.9823286,1216.1460179999995,1219.4000072999997,1220.9986039999994,koud,gebaren,0,koud,2
14,12.223596499999985,938.0251602999997,none,1,1221.3251763999997,1224.4870658999998,1228.5789903999994,1231.6922027,geur,gebaren,0,bloem,0
14,12.223596499999985,938.0251602999997,none,1,1234.3859890999993,1237.5360056,1242.3930604999996,1246.2275028999993,geur,gebaren,1,ruiken,0
14,12.223596499999985,938.0251602999997,none,1,1250.6378912999999,1255.9100429999999,1260.2384495999995,1269.630827,geur,gebaren,2,parfum,0
14,12.223596499999985,938.0251602999997,none,1,1272.5994487999997,1274.7629564999997,1278.7563101999995,1281.7077357999997,regen,gebaren,0,regen,2
14,12.223596499999985,938.0251602999997,none,1,1282.2510079999993,1286.7055573999996,1290.4274490999996,1292.0343113999998,staart,gebaren,0,staart,2
14,12.223596499999985,938.0251602999997,none,1,1292.5189775,1294.2073869999995,1296.8578972999994,1298.7770449,rennen,gebaren,0,rennen,2
14,12.223596499999985,938.0251602999997,none,1,1299.2702531999994,1301.9566232999996,1306.1701088999998,1309.8619260999994,water,gebaren,0,drinken,0
14,12.223596499999985,938.0251602999997,none,1,1312.7055265999998,1313.8205444999994,1320.4431908999995,1324.2558328999994,water,gebaren,1,schenken,0
14,12.223596499999985,938.0251602999997,none,1,1326.7995856999996,1334.1730901,1342.7098368999996,1345.1088519999994,water,gebaren,2,drank,0
14,12.223596499999985,1351.6697427999998,practice,0,1411.1284506000002,1420.1748853999998,1424.2224889999998,1427.0377042999999,geheim,geluiden,0,fluisteren,0
14,12.223596499999985,1351.6697427999998,practice,0,1429.7309004999997,1434.7583336999996,1438.7678078999998,1441.1982952999997,geheim,geluiden,1,stilte,0
14,12.223596499999985,1351.6697427999998,practice,0,1443.6168523999995,1445.7318434,1449.744178,1458.2588563999998,geheim,geluiden,2,stil,0
14,12.223596499999985,1351.6697427999998,practice,0,1461.1111013,1464.6442748999998,1466.8820093999993,1470.1523693999998,juichen,geluiden,0,winnen,0
14,12.223596499999985,1351.6697427999998,practice,0,1473.0461397999998,1474.1210907999994,1477.5578345999993,1479.3203021,juichen,geluiden,1,juichen,0
14,12.223596499999985,1351.6697427999998,none,0,1481.9140030999997,1487.7151470999997,1492.2788658,1496.9567122999997,heet,geluiden,0,blazen,0
14,12.223596499999985,1351.6697427999998,none,0,1499.0503589,1502.5728601,1508.4164597,1511.2002953,heet,geluiden,1,moe,0
14,12.223596499999985,1351.6697427999998,none,0,1514.3271292999998,1524.1571118000002,1526.3275409999997,1534.3119822999997,heet,geluiden,2,afkeer,0
14,12.223596499999985,1351.6697427999998,none,0,1537.3807652000005,1540.2954426999995,1542.4973426000006,1552.406297999999,niet,geluiden,0,nee,0
14,12.223596499999985,1351.6697427999998,none,0,1555.1165290999988,1556.2014219999992,1559.9234231,1565.5249240000003,niet,geluiden,1,stoppen,0
14,12.223596499999985,1351.6697427999998,none,0,1567.6013785999994,1572.2660721999991,1575.6244588,1581.1605688999998,niet,geluiden,2,stop,0
14,12.223596499999985,1351.6697427999998,none,0,1585.2041975999991,1592.605689699999,1596.1821532999993,1601.1469437999995,zout,geluiden,0,zagen,0
14,12.223596499999985,1351.6697427999998,none,0,1603.4489318999995,1605.7542614000004,1609.0187832000001,1617.8493817999997,zout,geluiden,1,eten,0
14,12.223596499999985,1351.6697427999998,none,0,1623.435056899999,1631.7364171999989,1634.717494399999,1639.494026899999,zout,geluiden,2,spugen,0
14,12.223596499999985,1351.6697427999998,none,0,1643.3378772999995,1653.831059699999,1656.5222731000003,1660.4646571999992,dik,geluiden,0,overgeven,0
14,12.223596499999985,1351.6697427999998,none,0,1663.074489399999,1664.3349167999995,1665.8458571,1670.6321636999992,dik,geluiden,1,springen,0
14,12.223596499999985,1351.6697427999998,none,0,1674.1426889999993,1674.6518831000003,1677.9260298,1712.1300413999988,dik,geluiden,2,wachten,0
14,12.223596499999985,1351.6697427999998,none,0,1716.2902605999998,1718.443679699999,1721.1045253000002,1725.2985894000003,huilen,geluiden,0,huilen,2
14,12.223596499999985,1351.6697427999998,none,0,1725.8335822,1729.6996836999997,1733.2921173999994,1736.126613899999,vechten,geluiden,0,vechten,2
14,12.223596499999985,1351.6697427999998,none,0,1736.6014270999995,1739.9545754,1741.9006495999993,1745.8936566000002,gooien,geluiden,0,snel,0
14,12.223596499999985,1351.6697427999998,none,0,1749.1956354999993,1751.1087175000002,1754.0208575000006,1755.4946179999997,gooien,geluiden,1,vliegtuig,0
14,12.223596499999985,1351.6697427999998,none,0,1757.9470892999989,1764.2178617,1765.9766080999989,1768.5467462000006,gooien,geluiden,2,vliegen,0
14,12.223596499999985,1351.6697427999998,practice,1,1815.5884113999991,1822.9775710000004,1825.538465499999,1832.5982986999998,glimlach,geluiden,0,piep,0
14,12.223596499999985,1351.6697427999998,practice,1,1836.9920276999992,1843.9383623999993,1848.7178563999996,1852.6342768000004,glimlach,geluiden,1,denken,0
14,12.223596499999985,1351.6697427999998,practice,1,1855.4112950999997,1858.664918399999,1861.773206499999,1867.6530706000003,glimlach,geluiden,2,weten,0
14,12.223596499999985,1351.6697427999998,practice,1,1870.6967269000006,1875.7931237000003,1879.046863999999,1880.0969326999993,zingen,geluiden,0,zinge,0
14,12.223596499999985,1351.6697427999998,none,1,1885.9657039999993,1894.4516248999998,1897.3753270999996,1900.0245021,ik,geluiden,0,idee,0
14,12.223596499999985,1351.6697427999998,none,1,1902.1184155,1907.4669912999989,1910.737118,1925.6036003999989,ik,geluiden,1,vinden,0
14,12.223596499999985,1351.6697427999998,none,1,1929.7302360999993,1937.7272476999997,1941.3653181,1943.9227540000002,ik,geluiden,2,praten,0
14,12.223596499999985,1351.6697427999998,none,1,1947.2999785999991,1950.7077051000006,1954.7111629,1957.0330416999996,zoemen,geluiden,0,bij,0
14,12.223596499999985,1351.6697427999998,none,1,1958.7770050999998,1960.5301446000003,1964.1679419000002,1965.767557799999,zoemen,geluiden,1,zoemen,1
14,12.223596499999985,1351.6697427999998,none,1,1966.552682299999,1970.946110599999,1976.2278459999989,1982.6284619999997,vuur,geluiden,0,kraken,0
14,12.223596499999985,1351.6697427999998,none,1,1985.9390577000004,1993.0332494999993,1999.2987268000006,2020.1763536999997,vuur,geluiden,1,malen,0
14,12.223596499999985,1351.6697427999998,none,1,2021.9523710000003,2025.3647365999996,2034.4543334,2055.0390378,vuur,geluiden,2,kruiden,0
14,12.223596499999985,1351.6697427999998,none,1,2058.0410987000005,2062.7308177000004,2066.1389831999995,2100.3543820000004,luidruchtig,geluiden,0,gejuich,0
14,12.223596499999985,1351.6697427999998,none,1,2105.556968,2109.2420534000003,2113.0675822999992,2116.2398765999997,luidruchtig,geluiden,1,schreeuwen,0
14,12.223596499999985,1351.6697427999998,none,1,2118.2084494,2121.364400199999,2132.6354199999996,2135.342614099999,luidruchtig,geluiden,2,joelen,0
14,12.223596499999985,1351.6697427999998,none,1,2137.4529334999997,2140.6020801000004,2143.0861366,2146.5779030000003,misschien,geluiden,0,mening,0
14,12.223596499999985,1351.6697427999998,none,1,2148.3216129,2149.9085124000003,2153.6560667999993,2157.3130207000004,misschien,geluiden,1,nadenken,0
14,12.223596499999985,1351.6697427999998,none,1,2159.0315863999995,2163.6354829,2169.750577,2173.6652021,misschien,geluiden,2,overwegen,0
14,12.223596499999985,1351.6697427999998,none,1,2176.1256934000003,2178.721953199999,2187.9421531,2190.2592889,ademen,geluiden,0,hijgen,0
14,12.223596499999985,1351.6697427999998,none,1,2191.83688,2195.7097155,2202.6745285999996,2205.1030607000002,ademen,geluiden,1,ademen,1
14,12.223596499999985,1351.6697427999998,none,1,2205.579772799999,2211.4125175,2214.9804632000005,2237.7582481,geven,geluiden,0,denken,0
14,12.223596499999985,1351.6697427999998,none,1,2239.5430148000005,2243.548935,2248.133849499999,2250.5020670000004,geven,geluiden,1,snappen,0
14,12.223596499999985,1351.6697427999998,none,1,2262.0217973999997,2263.6309582999993,2273.6192569999994,2276.9972735,geven,geluiden,2,instemmen,0
