ID,exp_start,block_start,practice,cycle,display_start,trial_start,trial_end,RT,word,modality,correction,answer,points
15,92.17303380000021,124.11138280000023,practice,0,160.79143880000038,162.67204540000012,169.11021850000043,172.11674770000036,zingen,combinatie,0,zingen,0
15,92.17303380000021,124.11138280000023,practice,0,173.00173070000028,174.1688307000004,184.08571560000019,188.1692495000002,telefoon,combinatie,0,telefoon,0
15,92.17303380000021,124.11138280000023,none,0,191.32928410000022,192.47644850000006,200.35197300000027,207.03034670000034,groot,combinatie,0,lang,0
15,92.17303380000021,124.11138280000023,none,0,209.91536250000036,210.38930470000014,242.37618510000038,244.8690958000002,groot,combinatie,1,groot,1
15,92.17303380000021,124.11138280000023,none,0,245.53754290000006,246.63347650000014,251.13023350000003,253.4121183000002,koud,combinatie,0,koud,2
15,92.17303380000021,124.11138280000023,none,0,253.98027020000018,255.01156410000021,266.28155990000005,270.38123270000006,luidruchtig,combinatie,0,zacht,0
15,92.17303380000021,124.11138280000023,none,0,274.82479749999993,276.0027018000005,291.65102270000034,294.1598313999998,luidruchtig,combinatie,1,luid,0
15,92.17303380000021,124.11138280000023,none,0,299.1622460000003,299.93874449999976,316.81987230000004,327.7229047000005,luidruchtig,combinatie,2,hard,0
15,92.17303380000021,124.11138280000023,none,0,331.0582949000004,332.60064250000005,346.2048470000004,349.784631,misschien,combinatie,0,twijfelen,0
15,92.17303380000021,124.11138280000023,none,0,353.70340460000034,354.55748989999984,365.51787319999994,368.72078759999977,misschien,combinatie,1,misschien,1
15,92.17303380000021,124.11138280000023,none,0,369.35543610000013,370.7511390000004,379.4242022000003,389.7903203999999,kruipen,combinatie,0,kruipen,2
15,92.17303380000021,124.11138280000023,none,0,390.3834969000004,391.72096850000025,404.4657127000005,412.1854239999998,jagen,combinatie,0,soldaat,0
15,92.17303380000021,124.11138280000023,none,0,416.3291273,417.18765699999994,441.07253320000063,445.5902430000001,jagen,combinatie,1,speurhond,0
15,92.17303380000021,124.11138280000023,none,0,449.4678348000002,450.1721854000002,470.59882789999983,474.46971799999983,jagen,combinatie,2,overwinning,0
15,92.17303380000021,124.11138280000023,none,0,477.77998590000016,478.8281947999999,484.0062754000005,486.26291919999994,lachen,combinatie,0,lachen,2
15,92.17303380000021,124.11138280000023,practice,1,536.2717634000005,537.1975765000002,547.6344654999998,550.7730250999998,fiets,combinatie,0,fietsen,0
15,92.17303380000021,124.11138280000023,practice,1,553.3824519000004,554.2390600000003,565.3694377000006,569.2586535000005,fiets,combinatie,1,bellen,0
15,92.17303380000021,124.11138280000023,practice,1,572.2191612000001,572.7710349000004,575.1938781000003,591.5368651000003,fiets,combinatie,2,trappen,0
15,92.17303380000021,124.11138280000023,practice,1,595.0723554000001,596.0150135999997,601.6385709000001,604.4552767999999,juichen,combinatie,0,juichenlshift,0
15,92.17303380000021,124.11138280000023,none,1,611.2411106000004,612.2707813000002,628.7354572999998,631.0593976000005,vlieg,combinatie,0,bij,0
15,92.17303380000021,124.11138280000023,none,1,633.7777255000005,647.5391098000005,657.4599145000007,661.6806972999998,vlieg,combinatie,1,mug,0
15,92.17303380000021,124.11138280000023,none,1,666.4659350000006,669.3332579000003,681.7627097999998,684.525521,vlieg,combinatie,2,vliegen,0
15,92.17303380000021,124.11138280000023,none,1,688.7197717000004,689.5347179000005,701.6096755000003,706.2703554000004,verdrietig,combinatie,0,huilen,0
15,92.17303380000021,124.11138280000023,none,1,709.6811914000004,714.0622988,725.4039414000003,729.5655462999998,verdrietig,combinatie,1,verdriet,1
15,92.17303380000021,124.11138280000023,none,1,734.3018430000006,737.2606731999999,745.1037282000002,754.9108879,stil,combinatie,0,stilte,0
15,92.17303380000021,124.11138280000023,none,1,761.2887821999998,765.2785601999999,775.8475146000005,777.814304,stil,combinatie,1,stil,1
15,92.17303380000021,124.11138280000023,none,1,778.3658099999998,780.6966318999998,789.1098645000006,792.5168355000001,staart,combinatie,0,staart,2
15,92.17303380000021,124.11138280000023,none,1,793.2848238000001,795.9141302000003,803.7605838000004,806.8689385000002,ademen,combinatie,0,ademen,2
15,92.17303380000021,124.11138280000023,none,1,807.5535544999998,810.0209086999998,817.8113377000004,825.7963591000002,huilen,combinatie,0,verdriet,0
15,92.17303380000021,124.11138280000023,none,1,833.2240637999998,834.1256419000006,843.9361929000002,847.0496114000002,huilen,combinatie,1,huilen,1
15,92.17303380000021,124.11138280000023,none,1,847.4341104999999,849.0372928000002,857.6887158000004,860.6348229,gooien,combinatie,0,gooien,2
15,92.17303380000021,862.6284369,practice,0,926.3129390999998,927.4869248999998,934.0624841000003,947.9573835000006,bal,geluiden,0,stuiteren,0
15,92.17303380000021,862.6284369,practice,0,952.3510404000003,955.8449961000001,968.9616712000002,974.8108725000006,bal,geluiden,1,basketballen,0
15,92.17303380000021,862.6284369,practice,0,978.6545173999998,979.7335076000004,989.4864044000001,998.3891886000006,bal,geluiden,2,vangen,0
15,92.17303380000021,862.6284369,practice,0,1002.8080295000004,1004.4170147999998,1016.9637539999999,1022.5594357000004,geheim,geluiden,0,fluisteren,0
15,92.17303380000021,862.6284369,practice,0,1025.0528444000006,1026.0975742000005,1041.5497168000006,1055.9233208,geheim,geluiden,1,verbaast,0
15,92.17303380000021,862.6284369,practice,0,1061.9749207999998,1062.4940300000003,1078.8372312000006,1090.3528271999999,geheim,geluiden,2,afkeuren,0
15,92.17303380000021,862.6284369,none,0,1096.5715492000004,1098.6917968000002,1105.3399638000005,1107.9888360999998,kat,geluiden,0,kat,2
15,92.17303380000021,862.6284369,none,0,1108.498443,1110.3495401000005,1120.8956434000006,1123.1074338000003,blij,geluiden,0,vrolijk,0
15,92.17303380000021,862.6284369,none,0,1125.7427057999998,1126.1506388000003,1134.6411053000006,1142.9769859000003,blij,geluiden,1,neurien,0
15,92.17303380000021,862.6284369,none,0,1145.6871215000006,1146.3764181000001,1153.0951996,1161.846419,blij,geluiden,2,blij,0.5
15,92.17303380000021,862.6284369,none,0,1162.7818099,1164.1467036,1174.1674878,1176.9152926000002,hoorn,geluiden,0,trompet,0
15,92.17303380000021,862.6284369,none,0,1180.6014557000003,1181.7622274,1188.6832850000005,1191.3758901000006,hoorn,geluiden,1,orkest,0
15,92.17303380000021,862.6284369,none,0,1194.7444602,1196.0914532000002,1208.1459841,1214.1958117999998,hoorn,geluiden,2,instrument,0
15,92.17303380000021,862.6284369,none,0,1217.7478876,1219.1355878,1232.5488148,1235.0991614,ziek,geluiden,0,ziek,2
15,92.17303380000021,862.6284369,none,0,1235.6422385,1237.2532034,1246.7980465000005,1255.1519665,eten,geluiden,0,lekker,0
15,92.17303380000021,862.6284369,none,0,1258.2624232000003,1259.0856608999998,1273.9698543,1276.9888178000006,eten,geluiden,1,eten,1
15,92.17303380000021,862.6284369,none,0,1277.4569274,1278.8430172000003,1287.8923264,1290.8071478000006,vallen,geluiden,0,bom,0
15,92.17303380000021,862.6284369,none,0,1293.9260428000002,1295.3217384000004,1301.370297,1307.1013484,vallen,geluiden,1,vallen,1
15,92.17303380000021,862.6284369,none,0,1307.6862966000003,1309.9770830000002,1320.2433184000006,1326.9292873999998,rennen,geluiden,0,hardlopen,0
15,92.17303380000021,862.6284369,none,0,1330.6396636000004,1331.3844416000006,1344.8120301000004,1346.9907118000006,rennen,geluiden,1,rennen,1
15,92.17303380000021,862.6284369,practice,1,1394.7576009999998,1395.7184247999999,1400.7798431000006,1403.4572432999998,eend,geluiden,0,eend,0
15,92.17303380000021,862.6284369,practice,1,1403.8753804000003,1407.2422257000003,1413.2263486000006,1418.9844445000003,glimlach,geluiden,0,neurien,0
15,92.17303380000021,862.6284369,practice,1,1425.7450609000002,1428.3092781,1434.5853121000005,1438.9207210999998,glimlach,geluiden,1,lachen,0
15,92.17303380000021,862.6284369,practice,1,1442.1724618000003,1443.0542098,1454.7277622000006,1464.8995989999999,glimlach,geluiden,2,lachen,0
15,92.17303380000021,862.6284369,none,1,1470.8603924000004,1474.6419603999998,1480.7507766000003,1484.7198983000003,zoemen,geluiden,0,zoemen,2
15,92.17303380000021,862.6284369,none,1,1485.2374801,1489.5579867000001,1494.3592143,1500.2054877000005,dood,geluiden,0,tikken,0
15,92.17303380000021,862.6284369,none,1,1503.7574347000004,1505.2272628000005,1510.0689603000005,1516.5405925999999,dood,geluiden,1,uitgleiden,0
15,92.17303380000021,862.6284369,none,1,1519.6011764,1524.4168802999998,1529.4195039,1538.6770579,dood,geluiden,2,achtbaan,0
15,92.17303380000021,862.6284369,none,1,1545.3377647000002,1548.4770961,1556.3752343,1567.2814805000003,bliksem,geluiden,0,schieten,0
15,92.17303380000021,862.6284369,none,1,1571.4586674000006,1573.4024831000002,1577.7549296000002,1588.3349015,bliksem,geluiden,1,blazen,0
15,92.17303380000021,862.6284369,none,1,1591.5117394000004,1594.4973542000002,1599.0737407000001,1614.1729111,bliksem,geluiden,2,wind,0
15,92.17303380000021,862.6284369,none,1,1618.7072231000006,1622.9732144000004,1632.7150797,1647.7264582000003,berg,geluiden,0,verbaast,0
15,92.17303380000021,862.6284369,none,1,1652.362412,1654.7229706000003,1663.3124376,1674.5978174000006,berg,geluiden,1,rennen,0
15,92.17303380000021,862.6284369,none,1,1678.1909128000002,1681.2029699999998,1688.7978466999998,1691.7245833000002,berg,geluiden,2,vallen,0
15,92.17303380000021,862.6284369,none,1,1695.8601186,1698.8238891000005,1704.8245558000003,1732.1390210000004,geur,geluiden,0,knikken,0
15,92.17303380000021,862.6284369,none,1,1736.2081381000003,1744.3569817000002,1751.8772639000003,1757.6010627,geur,geluiden,1,goedkeuren,0
15,92.17303380000021,862.6284369,none,1,1759.9197091,1761.6690762000003,1767.1805657999998,1779.0042618000002,geur,geluiden,2,luisteren,0
15,92.17303380000021,862.6284369,none,1,1782.3895275999998,1787.5633971000002,1791.9913525000006,1817.9099255000006,oud,geluiden,0,spanning,0
15,92.17303380000021,862.6284369,none,1,1821.2706107999998,1824.2188781999998,1829.2559096,1833.4206694999998,oud,geluiden,1,angst,1
15,92.17303380000021,862.6284369,none,1,1844.0662676000006,1848.9175346000006,1855.3962975999998,1857.7074604000004,zuur,geluiden,0,pijn,0
15,92.17303380000021,862.6284369,none,1,1861.7430932000002,1865.7357862000003,1870.8122434000002,1875.7108374000004,zuur,geluiden,1,moeilijk,0
15,92.17303380000021,862.6284369,none,1,1879.0457517,1882.4278104999999,1886.7805438,1890.6207005,zuur,geluiden,2,lastig,0
15,92.17303380000021,1952.2228386000002,practice,0,1958.1652204000006,1959.3493715,1971.3208665000006,1974.0079927000002,vliegtuig,gebaren,0,vliegen,0
15,92.17303380000021,1952.2228386000002,practice,0,1976.226236,1976.9604567000001,1993.7039477000003,1996.5697381000004,vliegtuig,gebaren,1,vliegtuig,0
15,92.17303380000021,1952.2228386000002,practice,0,1996.6622702999998,1999.6936742000003,2007.6467917000004,2010.5133548,sneeuw,gebaren,0,winter,0
15,92.17303380000021,1952.2228386000002,practice,0,2013.6068285000006,2014.2793993,2022.6151433,2024.1904386,sneeuw,gebaren,1,sneeuw,0
15,92.17303380000021,1952.2228386000002,none,0,2025.8584881000002,2027.8218639000002,2037.3188093000003,2040.2844107000005,walgen,gebaren,0,vies,0
15,92.17303380000021,1952.2228386000002,none,0,2042.2941032000003,2043.0458492000002,2052.6619896000007,2063.3128475,walgen,gebaren,1,overgeven,0
15,92.17303380000021,1952.2228386000002,none,0,2066.4902518000004,2067.0092322000005,2077.0699989,2085.0326532000004,walgen,gebaren,2,angst,0
15,92.17303380000021,1952.2228386000002,none,0,2088.8678154000004,2089.9216799,2106.5217353000003,2108.6943286,snel,gebaren,0,haast,0
15,92.17303380000021,1952.2228386000002,none,0,2111.2631402,2111.9859704000005,2129.5581266000004,2132.8897399,snel,gebaren,1,snel,1
15,92.17303380000021,1952.2228386000002,none,0,2132.9658302000003,2134.697495,2141.1804487000004,2143.5996589,vrouw,gebaren,0,vrouw,2
15,92.17303380000021,1952.2228386000002,none,0,2143.9844872,2145.2289531,2156.9575222,2159.4351927000002,hoog,gebaren,0,hoog,2
15,92.17303380000021,1952.2228386000002,none,0,2159.9701274000004,2161.2714853,2175.3814775000005,2183.8306500000003,scherp,gebaren,0,snijden,0
15,92.17303380000021,1952.2228386000002,none,0,2188.1994678000005,2189.0544417000006,2212.8075085000005,2233.613114,scherp,gebaren,1,zagen,0
15,92.17303380000021,1952.2228386000002,none,0,2236.8816687000003,2237.6082262000004,2252.7933685000003,2255.7495207000006,scherp,gebaren,2,scherp,0.5
15,92.17303380000021,1952.2228386000002,none,0,2256.3092751,2258.1986457,2265.4275128000004,2269.1515845,langzaam,gebaren,0,langzaam,2
15,92.17303380000021,1952.2228386000002,none,0,2269.7279510000003,2271.0604574000004,2291.0754526000005,2294.4050356000002,water,gebaren,0,kraan,0
15,92.17303380000021,1952.2228386000002,none,0,2297.2411383000003,2297.8466193,2304.5726383000006,2306.2654825000004,water,gebaren,1,water,1
15,92.17303380000021,1952.2228386000002,practice,1,2345.1893016,2347.0858544,2349.8689479,2352.9388583000004,zwaaien,gebaren,0,zwaaien,0
15,92.17303380000021,1952.2228386000002,practice,1,2353.3404721,2355.5533440000004,2367.0806794000005,2369.0578584,klok,gebaren,0,klok,0
15,92.17303380000021,1952.2228386000002,none,1,2371.0345588000005,2373.5378507,2377.3991583,2383.1348377,boos,gebaren,0,boos,2
15,92.17303380000021,1952.2228386000002,none,1,2383.6527564000003,2387.1536933,2398.5100381000007,2408.0468869,kind,gebaren,0,baby,0
15,92.17303380000021,1952.2228386000002,none,1,2410.8158492,2411.8723245000006,2424.5605533000003,2434.1426063000004,kind,gebaren,1,peuter,0
15,92.17303380000021,1952.2228386000002,none,1,2437.1359222000006,2437.8785729000006,2449.0110563000003,2452.0701339,kind,gebaren,2,kind,0.5
15,92.17303380000021,1952.2228386000002,none,1,2452.5800791000006,2455.5484134000003,2466.9144853000003,2474.5902166,ver,gebaren,0,verweg,2
15,92.17303380000021,1952.2228386000002,none,1,2477.5008624000006,2479.2351659,2485.2159857,2487.5335686000003,vis,gebaren,0,slang,0
15,92.17303380000021,1952.2228386000002,none,1,2490.202409,2492.155956,2505.2032830000003,2509.6868789000005,vis,gebaren,1,kronkelen,0
15,92.17303380000021,1952.2228386000002,none,1,2513.3724477,2513.8916699000006,2529.4847279,2538.2911684000005,vis,gebaren,2,zee,0
15,92.17303380000021,1952.2228386000002,none,1,2543.260331,2545.5541831000005,2557.383808,2559.5441197000005,regen,gebaren,0,regen,2
15,92.17303380000021,1952.2228386000002,none,1,2560.029027,2563.4940937000006,2580.2886533000005,2582.0315075000003,piepen,gebaren,0,kip,0
15,92.17303380000021,1952.2228386000002,none,1,2585.5831164000006,2586.3154875000005,2595.7930319,2602.8923249000004,piepen,gebaren,1,kuikelen,0
15,92.17303380000021,1952.2228386000002,none,1,2608.1694089,2611.8846647000005,2617.3969032,2649.9993526000003,piepen,gebaren,2,kwaken,0
15,92.17303380000021,1952.2228386000002,none,1,2654.4180951000003,2656.9424377,2662.364376,2665.0429807000005,vangen,gebaren,0,vangen,2
