ID,exp_start,block_start,practice,cycle,display_start,trial_start,trial_end,RT,word,modality,correction,answer,points
1,631.5737466999999,690.4262685000003,practice,0,758.8529943000003,760.4607635000002,772.8124773999998,779.6914766999998,gek,gebaren,,gek,0
1,631.5737466999999,690.4262685000003,practice,0,779.7185268000003,784.0109887999997,790.4301113000001,793.1518016,bloem,gebaren,,bloem,0
1,631.5737466999999,690.4262685000003,none,0,841.2142832,845.2657345999996,845.9478296999996,849.1683239000004,ik,gebaren,,ik,1
1,631.5737466999999,690.4262685000003,none,0,849.1918568000001,854.9116625999995,860.6064343999997,866.4791576999996,walgen,gebaren,,overgeven,0
1,631.5737466999999,690.4262685000003,none,0,866.4998613999996,901.7912416999998,907.1683389,914.6945851,ei,gebaren,,poepen,0
1,631.5737466999999,690.4262685000003,none,0,914.7161435999997,916.6812916999997,920.2894358000003,925.6129665999997,hoog,gebaren,,lucht,0
1,631.5737466999999,690.4262685000003,none,0,925.6344933999999,927.5338327,931.4217965999997,933.7558559999998,drinken,gebaren,,drinken,1
1,631.5737466999999,690.4262685000003,none,0,933.7776599999997,935.4488521000003,938.7294861,941.6237305000004,lachen,gebaren,,lachen,1
1,631.5737466999999,690.4262685000003,none,0,941.6465029000001,943.1797551,949.0160336999998,951.8752064999999,slapen,gebaren,,slapen,1
1,631.5737466999999,690.4262685000003,practice,1,1070.2459643000002,1085.1051718999997,1086.4410220999998,1092.4455967000004,haasten,gebaren,,hardlopen,0
1,631.5737466999999,690.4262685000003,practice,1,1092.4762334999996,1096.0570436999997,1100.1036111000003,1102.6138116000002,knippen,gebaren,,knippen,0
1,631.5737466999999,690.4262685000003,none,1,1110.6315102999997,1121.0984261000003,1124.3947932,1128.3427855999998,luidruchtig,gebaren,,scrheeuwen,0
1,631.5737466999999,690.4262685000003,none,1,1128.3633195000002,1132.4733311,1135.4434026,1142.0694762000003,niet,gebaren,,nee,0
1,631.5737466999999,690.4262685000003,none,1,1142.0909438999997,1146.7097488999998,1150.2988543000001,1154.0048795000002,dik,gebaren,,taille,0
1,631.5737466999999,690.4262685000003,none,1,1154.0273447,1156.3729529000002,1160.2208443,1163.0394657999996,vliegen,gebaren,,vliegen,1
1,631.5737466999999,690.4262685000003,none,1,1163.0595936999998,1167.3029396000002,1169.8772099999996,1172.1249993000001,springen,gebaren,,springen,1
1,631.5737466999999,690.4262685000003,none,1,1172.1457817,1174.8949565000003,1178.0326053,1181.7089016999998,kotsen,gebaren,,walgen,0
1,631.5737466999999,690.4262685000003,none,1,1181.7290568999997,1186.8728370999997,1190.6733144999998,1194.3524619999998,wind,gebaren,,vallen,0
1,631.5737466999999,1198.7484384999998,practice,0,1283.7681566,1289.3944474999998,1294.9334353000004,1298.0842726,olifant,combinatie,,olifant,0
1,631.5737466999999,1198.7484384999998,practice,0,1298.1150838000003,1300.9129544999996,1305.7245483999995,1313.5865739,auto,combinatie,,autorijden,0
1,631.5737466999999,1198.7484384999998,none,0,1317.8968765,1320.6961091000003,1324.847159,1326.5802003999997,kat,combinatie,,kat,1
1,631.5737466999999,1198.7484384999998,none,0,1326.6034728000004,1333.3515279000003,1342.1555904999996,1347.9999937000002,vrouw,combinatie,,vrouw,1
1,631.5737466999999,1198.7484384999998,none,0,1348.0238771000004,1352.9230776000004,1359.4910714999996,1362.7105303999997,zwaar,combinatie,,dik,0
1,631.5737466999999,1198.7484384999998,none,0,1362.7315091,1365.8330556,1371.9845077,1377.4126022,man,combinatie,,sterk,0
1,631.5737466999999,1198.7484384999998,none,0,1377.4360631999998,1380.0084524000004,1389.0407707000004,1393.8484191999996,sterk,combinatie,,bodybuilder,0
1,631.5737466999999,1198.7484384999998,none,0,1393.8693144,1397.3053254999995,1402.7929160000003,1406.4253141999998,vallen,combinatie,,vallen,1
1,631.5737466999999,1198.7484384999998,none,0,1406.4460736,1409.2511273999999,1414.1483043999997,1419.2438447000004,weten,combinatie,,bedenken,0
1,631.5737466999999,1198.7484384999998,practice,1,1511.5780495999998,1520.0694363000002,1525.3977133999997,1526.6427829000004,dansen,combinatie,,dansen,0
1,631.5737466999999,1198.7484384999998,practice,1,1526.6747395000002,1533.4621083000002,1537.8519119000002,1540.3128649,koken,combinatie,,bakken,0
1,631.5737466999999,1198.7484384999998,none,1,1542.2919562999996,1547.8381989999998,1551.9416969000004,1553.5218502999996,boos,combinatie,,boos,1
1,631.5737466999999,1198.7484384999998,none,1,1553.5434931999998,1560.9502921000003,1565.2310889,1568.6409425000002,zoemen,combinatie,,vliegen,0
1,631.5737466999999,1198.7484384999998,none,1,1568.6632123999998,1577.3358552,1583.3037858999996,1585.5514488,stil,combinatie,,stilte,0
1,631.5737466999999,1198.7484384999998,none,1,1585.5739295000003,1589.8512590999999,1598.0482757,1604.9627641999996,ademen,combinatie,,zuchten,0
1,631.5737466999999,1198.7484384999998,none,1,1604.9869154999997,1609.0730697,1613.5640033999998,1618.4396815999999,zuigen,combinatie,,zuigen,1
1,631.5737466999999,1198.7484384999998,none,1,1618.4618787999998,1622.3645686999998,1626.9685280000003,1629.0412416,zwemmen,combinatie,,zwemmen,1
1,631.5737466999999,1198.7484384999998,none,1,1629.0629611000004,1634.474967,1639.2462594999997,1641.7430395000001,lopen,combinatie,,hardlopen,0
1,631.5737466999999,1672.0675959999999,practice,0,1749.8541415,1753.0054091000002,1753.9398752999996,1757.6934232000003,snel,geluiden,,wind,0
1,631.5737466999999,1672.0675959999999,practice,0,1757.7224883,1760.3711948,1765.9068532000001,1776.3795748000002,comfortabel,geluiden,,lopen,0
1,631.5737466999999,1672.0675959999999,none,0,1780.3090912999996,1784.5189813999996,1790.3826151000003,1796.2991887999997,groot,geluiden,,opstijgen,0
1,631.5737466999999,1672.0675959999999,none,0,1796.3215125999996,1804.2349198000002,1812.5260718,1821.411024,kind,geluiden,,baby,0
1,631.5737466999999,1672.0675959999999,none,0,1821.433787,1824.9946363,1827.7955075999998,1834.8381221999998,blij,geluiden,,kind,0
1,631.5737466999999,1672.0675959999999,none,0,1834.8597197999998,1838.4090196999996,1842.6136253000004,1853.4667559,heet,geluiden,,vliegen,0
1,631.5737466999999,1672.0675959999999,none,0,1853.488518,1858.2216716000003,1861.7105487999997,1866.0844895999999,zuur,geluiden,,misselijk,0
1,631.5737466999999,1672.0675959999999,none,0,1866.1077763000003,1869.5580774999999,1874.7844777,1878.0028241999998,kruipen,geluiden,,roeien,0
1,631.5737466999999,1672.0675959999999,none,0,1878.0228011999998,1882.3778263000004,1886.8066310000004,1897.6140475000002,gooien,geluiden,,waaien,0
1,631.5737466999999,1672.0675959999999,practice,1,1986.1649418999996,1988.7548915999996,1993.4271793999997,1997.3130056999998,snijden,geluiden,,traplopen,0
1,631.5737466999999,1672.0675959999999,practice,1,1997.3396982000004,2003.9362201000004,2012.3516994000001,2015.0154086000002,langzaam,geluiden,,wind,0
1,631.5737466999999,1672.0675959999999,none,1,2025.9478110999999,2040.2515863999997,2047.0941303999998,2050.1281938,ver,geluiden,,drinken,0
1,631.5737466999999,1672.0675959999999,none,1,2050.1474608,2070.058623,2078.8489435,2086.0417648000002,vuur,geluiden,,kruipen,0
1,631.5737466999999,1672.0675959999999,none,1,2086.0635337000003,2091.0928848000003,2095.8324664,2097.1017423000003,slang,geluiden,,slang,1
1,631.5737466999999,1672.0675959999999,none,1,2097.1254778,2103.8644139,2108.1545005999997,2112.4121431000003,kauwen,geluiden,,smakken,0
1,631.5737466999999,1672.0675959999999,none,1,2112.4352566,2118.4899772999997,2123.3366494,2126.2560452,vechten,geluiden,,klappen,0
1,631.5737466999999,1672.0675959999999,none,1,2126.2788121000003,2129.6933092,2133.1541403,2139.2578833,grommen,geluiden,,grommen,1
1,631.5737466999999,1672.0675959999999,none,1,2139.278176,2144.6735445000004,2151.284426,2157.4780579999997,jagen,geluiden,,pistool,0
