ID,exp_start,block_start,practice,cycle,display_start,trial_start,trial_end,RT,word,modality,correction,answer,points
21,9.669521500000428,222.00354200000038,practice,0,287.8214465000001,291.53786430000036,299.13796100000036,306.0722882,klok,geluiden,0,getik,0
21,9.669521500000428,222.00354200000038,practice,0,312.95912750000025,314.9941700000004,324.50930540000036,326.00858070000004,klok,geluiden,1,klok,0
21,9.669521500000428,222.00354200000038,practice,0,327.6192787,332.50591920000033,339.6866950000003,341.67789200000016,telefoon,geluiden,0,telefoon,0
21,9.669521500000428,222.00354200000038,none,0,346.4051550000004,354.0524114,363.3526164,374.2823665000001,dood,geluiden,0,saai,0
21,9.669521500000428,222.00354200000038,none,0,379.26067280000007,392.5426523000001,404.7334913000004,409.2208753,dood,geluiden,1,spanning,0
21,9.669521500000428,222.00354200000038,none,0,414.3992148000002,420.26529240000036,426.76637100000016,437.9424376000002,dood,geluiden,2,geluid,0
21,9.669521500000428,222.00354200000038,none,0,445.3534020000002,453.6840825000004,463.0425342000003,466.04589090000036,ei,geluiden,0,lek,0
21,9.669521500000428,222.00354200000038,none,0,470.4407448000002,472.41478320000033,480.0187646000004,486.27386560000014,ei,geluiden,1,kip,0
21,9.669521500000428,222.00354200000038,none,0,491.6355023000001,494.55195600000025,502.8839710000002,503.6929562,ei,geluiden,2,ei,0.5
21,9.669521500000428,222.00354200000038,none,0,505.67022680000036,509.9990149,520.1273946000001,523.5794344000001,berg,geluiden,0,drukte,0
21,9.669521500000428,222.00354200000038,none,0,527.6991722000002,532.9115413000004,539.2412127000002,544.7157460000003,berg,geluiden,1,luidruchtig,0
21,9.669521500000428,222.00354200000038,none,0,548.8434865000004,551.7256944000001,559.3489358000002,561.0682443000001,berg,geluiden,2,verbazing,0
21,9.669521500000428,222.00354200000038,none,0,567.1050306000002,572.6166791,578.1236088,579.6294748,vallen,geluiden,0,val,0
21,9.669521500000428,222.00354200000038,none,0,584.1739876000001,585.9091176000002,592.1861645000004,596.1567653000002,vallen,geluiden,1,vallen,1
21,9.669521500000428,222.00354200000038,none,0,597.7922941000002,601.4820777,612.9744325000001,614.6094544000002,vliegen,geluiden,0,wind,0
21,9.669521500000428,222.00354200000038,none,0,619.1711761000001,621.8873192000001,632.1142316,650.3481320000001,vliegen,geluiden,1,opluchting,0
21,9.669521500000428,222.00354200000038,none,0,656.0264879000001,658.0212019,670.7227390000003,672.7097566000002,vliegen,geluiden,2,raket,0
21,9.669521500000428,222.00354200000038,none,0,679.3796736000004,684.2717962000002,692.5952061000003,694.9546764000002,slaan,geluiden,0,wegjagen,0
21,9.669521500000428,222.00354200000038,none,0,699.2826817,703.2000241000001,709.3243231000001,741.1703598000004,slaan,geluiden,1,weglopen,0
21,9.669521500000428,222.00354200000038,none,0,745.7727483000003,748.7081572000002,755.9622260000001,757.0555406000003,slaan,geluiden,2,sterk,0
21,9.669521500000428,222.00354200000038,none,0,762.3585743000003,765.9026176000002,776.589868,778.1668040000004,slapen,geluiden,0,slapen,2
21,9.669521500000428,222.00354200000038,practice,1,831.5598710000004,834.9791227000001,845.9026154000003,850.6524729000002,fiets,geluiden,0,blazen,0
21,9.669521500000428,222.00354200000038,practice,1,856.0055571000003,860.4033923000002,870.1795718000003,878.8901814000001,fiets,geluiden,1,adem,0
21,9.669521500000428,222.00354200000038,practice,1,883.2346619,885.4308330000003,889.6137442000004,911.51152,fiets,geluiden,2,lucht,0
21,9.669521500000428,222.00354200000038,practice,1,918.1982147000003,925.3931900000002,939.3363195000002,944.0080350000003,vliegtuig,geluiden,0,storm,0
21,9.669521500000428,222.00354200000038,practice,1,948.3360000000002,950.9403527000004,972.1879582000001,983.3139235000003,vliegtuig,geluiden,1,ongeluk,0
21,9.669521500000428,222.00354200000038,practice,1,988.0253178000003,990.0513601000002,1002.0898899000003,1006.0173159000001,vliegtuig,geluiden,2,lancering,0
21,9.669521500000428,222.00354200000038,none,1,1016.8958012000003,1020.8437740000004,1028.2152792000002,1032.5793836000003,vogel,geluiden,0,piepen,0
21,9.669521500000428,222.00354200000038,none,1,1035.6319771000003,1036.4574342,1044.9836835,1052.5075144000002,vogel,geluiden,1,klein,0
21,9.669521500000428,222.00354200000038,none,1,1057.1854511000001,1062.3103835000002,1068.5728310000004,1086.8623458000002,vogel,geluiden,2,duif,0
21,9.669521500000428,222.00354200000038,none,1,1094.0242556000003,1096.4526056000004,1100.1358375,1104.3324362000003,hond,geluiden,0,hond,2
21,9.669521500000428,222.00354200000038,none,1,1105.8172883000002,1110.0245760000003,1118.4531244,1122.9426428000002,regen,geluiden,0,waterdruppel,0
21,9.669521500000428,222.00354200000038,none,1,1128.3713153000003,1129.6265993000002,1135.4057111000002,1139.1118705000004,regen,geluiden,1,lekken,0
21,9.669521500000428,222.00354200000038,none,1,1144.123012,1145.9190866000004,1155.4909435999998,1157.3485455,regen,geluiden,2,lek,0
21,9.669521500000428,222.00354200000038,none,1,1165.2930109999998,1168.1969917000006,1173.5100118,1188.5775183000005,piepen,geluiden,0,vleermuis,0
21,9.669521500000428,222.00354200000038,none,1,1192.9389209,1194.7297109,1202.3970700999998,1219.0403299,piepen,geluiden,1,dier,0
21,9.669521500000428,222.00354200000038,none,1,1223.6685664000006,1225.2701910000005,1233.6276131000004,1237.4846865999998,piepen,geluiden,2,kat,0
21,9.669521500000428,222.00354200000038,none,1,1242.8711217,1247.8030297000005,1256.3206015000005,1260.8213768000005,zoet,geluiden,0,lekker,0
21,9.669521500000428,222.00354200000038,none,1,1264.7079266,1268.9523257,1274.9615210000002,1279.7249546000003,zoet,geluiden,1,smaken,0
21,9.669521500000428,222.00354200000038,none,1,1284.0772051000004,1285.7527946,1291.3003388000006,1302.1360645000004,zoet,geluiden,2,heerlijk,0
21,9.669521500000428,222.00354200000038,none,1,1309.1977701000005,1316.3809859000003,1321.671343,1332.4237724000004,geven,geluiden,0,hoog,0
21,9.669521500000428,222.00354200000038,none,1,1336.2101954999998,1337.9950503,1343.6633896000003,1355.5937727,geven,geluiden,1,rustig,0
21,9.669521500000428,222.00354200000038,none,1,1359.6468189000007,1361.5043744000004,1365.6717797000001,1389.2238746000003,geven,geluiden,2,relaxen,0
21,9.669521500000428,222.00354200000038,none,1,1398.0936364999998,1416.3729762000003,1422.0866194,1425.4539619000006,likken,geluiden,0,likken,2
21,9.669521500000428,1434.9327623999998,practice,0,1509.5269566000006,1514.3409896000003,1522.1949288000005,1531.4117749000006,geheim,combinatie,0,fluisteren,0
21,9.669521500000428,1434.9327623999998,practice,0,1536.5647471000002,1539.7725894000005,1549.1091382000004,1558.1821151000004,geheim,combinatie,1,verklappen,0
21,9.669521500000428,1434.9327623999998,practice,0,1562.1605119000005,1564.5806581000006,1575.1936299,1576.717976,geheim,combinatie,2,geheim,0
21,9.669521500000428,1434.9327623999998,practice,0,1578.3952391000003,1581.1863956000007,1588.3765713000003,1595.5124977000005,bal,combinatie,0,gooien,0
21,9.669521500000428,1434.9327623999998,practice,0,1599.1407462000006,1601.1448160999998,1610.7120376000003,1613.4901908000002,bal,combinatie,1,volleyballen,0
21,9.669521500000428,1434.9327623999998,practice,0,1617.7098683000004,1620.7344942999998,1636.5474037000004,1642.361078,bal,combinatie,2,tennissen,0
21,9.669521500000428,1434.9327623999998,none,0,1649.9978410000003,1653.9596066000004,1660.5770738,1661.5056389000001,boos,combinatie,0,boos,2
21,9.669521500000428,1434.9327623999998,none,0,1662.7661699999999,1666.6251716000006,1671.5801614000002,1673.1238649000006,stil,combinatie,0,stilte,0
21,9.669521500000428,1434.9327623999998,none,0,1677.8688276000003,1680.5517823999999,1686.7198859,1691.6100141000006,stil,combinatie,1,rust,0
21,9.669521500000428,1434.9327623999998,none,0,1695.8131053000006,1699.1831110000003,1705.5883523000002,1707.1379883999998,stil,combinatie,2,sussen,0
21,9.669521500000428,1434.9327623999998,none,0,1711.3069825000002,1716.4851999000002,1723.4842448999998,1726.4067800000003,zuur,combinatie,0,walgen,0
21,9.669521500000428,1434.9327623999998,none,0,1730.0602061,1731.3557904999998,1737.6390324000004,1738.8087338000005,zuur,combinatie,1,vies,0
21,9.669521500000428,1434.9327623999998,none,0,1742.4528547999998,1745.2721632000003,1753.1264489000005,1759.7201408,zuur,combinatie,2,drugs,0
21,9.669521500000428,1434.9327623999998,none,0,1764.7066666,1768.1150759000002,1779.0750386999998,1780.2070701000002,ademen,combinatie,0,ademen,2
21,9.669521500000428,1434.9327623999998,none,0,1781.6507843999998,1784.9948880000002,1793.4890652000004,1799.0675396000006,eten,combinatie,0,eten,2
21,9.669521500000428,1434.9327623999998,none,0,1800.4698917000005,1805.7035362000006,1811.7878050999998,1813.1029414000004,vechten,combinatie,0,vechten,2
21,9.669521500000428,1434.9327623999998,none,0,1813.9385701,1817.8656156000006,1825.8487303000002,1826.9800116000006,springen,combinatie,0,springen,2
21,9.669521500000428,1434.9327623999998,practice,1,1872.0888547000004,1875.4791714000003,1878.9438592000006,1883.1215986000007,zwaaien,combinatie,0,begroeten,0
21,9.669521500000428,1434.9327623999998,practice,1,1886.8245253000005,1888.2378691000004,1893.7884733,1897.0986677,zwaaien,combinatie,1,zwaaien,0
21,9.669521500000428,1434.9327623999998,practice,1,1898.4095490999998,1902.0862941000005,1907.9311654000003,1912.6010016,glimlach,combinatie,0,glimlach,0
21,9.669521500000428,1434.9327623999998,none,1,1916.2118661000004,1920.0320405000002,1926.3151664000006,1927.8952522999998,kat,combinatie,0,kat,2
21,9.669521500000428,1434.9327623999998,none,1,1928.7469468,1931.7006975000004,1944.2460934,1948.7646275000006,vuur,combinatie,0,waterval,0
21,9.669521500000428,1434.9327623999998,none,1,1952.8425101000003,1957.1398939,1969.2986490000003,1981.8787454000003,vuur,combinatie,1,aaien,0
21,9.669521500000428,1434.9327623999998,none,1,1986.6313484000002,1990.3083594,2001.4176426000004,2003.5227125000001,vuur,combinatie,2,vuur,0.5
21,9.669521500000428,1434.9327623999998,none,1,2004.9753342000004,2008.3424785000007,2020.3795218000005,2022.7337920999998,vlieg,combinatie,0,bijen,0
21,9.669521500000428,1434.9327623999998,none,1,2026.2201408,2027.9429350999999,2034.3863816000003,2044.6296160000002,vlieg,combinatie,1,bij,0
21,9.669521500000428,1434.9327623999998,none,1,2047.8484724999998,2050.1406503,2059.3313016,2061.5563563000005,vlieg,combinatie,2,vlieg,0.5
21,9.669521500000428,1434.9327623999998,none,1,2062.8334412000004,2066.6186924000003,2079.3775396,2081.7676259,bliksem,combinatie,0,bliksem,2
21,9.669521500000428,1434.9327623999998,none,1,2082.9113657,2086.3893743,2090.9617388000006,2093.660866,niet,combinatie,0,fout,0
21,9.669521500000428,1434.9327623999998,none,1,2097.3719564000003,2099.5828653,2103.0063044,2108.8966547,niet,combinatie,1,oneens,0
21,9.669521500000428,1434.9327623999998,none,1,2112.4244841,2114.9150149000006,2130.6798823999998,2146.9189249,niet,combinatie,2,nee,0
21,9.669521500000428,1434.9327623999998,none,1,2153.1471884000002,2156.6309243000005,2167.7817508,2173.5893984000004,verbranden,combinatie,0,verbranden,2
21,9.669521500000428,1434.9327623999998,none,1,2174.8916254000005,2177.4790094,2182.7939080000006,2186.6330554000006,horen,combinatie,0,verstaan,0
21,9.669521500000428,1434.9327623999998,none,1,2190.7358083999998,2192.3034601,2197.7415461,2200.1194663000006,horen,combinatie,1,horen,1
21,9.669521500000428,2204.9119514000004,practice,0,2250.969486,2255.1783483,2265.0363548000005,2267.2366511,sneeuw,gebaren,0,regen,0
21,9.669521500000428,2204.9119514000004,practice,0,2270.8478538,2272.5384851,2282.5365921000002,2283.5390684000004,sneeuw,gebaren,1,sneeuw,0
21,9.669521500000428,2204.9119514000004,practice,0,2284.4325614,2288.1209477,2296.5522283,2297.5409735000003,zingen,gebaren,0,zingen,0
21,9.669521500000428,2204.9119514000004,none,0,2301.3937959000004,2305.4549362,2315.9885967,2317.2607530000005,zoemen,gebaren,0,lawaai,0
21,9.669521500000428,2204.9119514000004,none,0,2321.0553231000004,2322.6576691,2333.7970022,2337.2718716,zoemen,gebaren,1,vlieg,0
21,9.669521500000428,2204.9119514000004,none,0,2341.0249743000004,2342.8486182000006,2351.5367127,2359.0584774999998,zoemen,gebaren,2,wattenstaaf,0
21,9.669521500000428,2204.9119514000004,none,0,2363.6114738000006,2368.1025544000004,2378.2786894,2379.7115605999998,zwaar,gebaren,0,zwaar,2
21,9.669521500000428,2204.9119514000004,none,0,2380.5055033,2383.0095307,2389.7200269000004,2390.713127,bang,gebaren,0,bang,2
21,9.669521500000428,2204.9119514000004,none,0,2391.9405812000005,2395.6223561000006,2403.3385978000006,2404.2816229,scherp,gebaren,0,pijn,0
21,9.669521500000428,2204.9119514000004,none,0,2407.6180796,2409.9268694,2416.4961067000004,2418.6089911999998,scherp,gebaren,1,snijden,0
21,9.669521500000428,2204.9119514000004,none,0,2422.0952347,2422.8239138,2430.2699058,2431.1024525000003,scherp,gebaren,2,mes,0
21,9.669521500000428,2204.9119514000004,none,0,2435.3220185,2438.6224374000003,2443.9040379,2445.1544854000003,gooien,gebaren,0,gooien,2
21,9.669521500000428,2204.9119514000004,none,0,2446.2729765000004,2449.2755227,2454.598444,2456.1228462,kotsen,gebaren,0,overgeven,0
21,9.669521500000428,2204.9119514000004,none,0,2460.4174076,2461.9383419000005,2467.5730395,2468.3579390000004,kotsen,gebaren,1,vies,0
21,9.669521500000428,2204.9119514000004,none,0,2471.8357135000006,2473.5954563000005,2481.2554282,2482.4016570000003,kotsen,gebaren,2,kotsen,0.5
21,9.669521500000428,2204.9119514000004,none,0,2484.0956573000003,2487.211354,2493.9886864,2495.5453122999998,fluisteren,gebaren,0,fluisteren,2
21,9.669521500000428,2204.9119514000004,practice,1,2533.1695894000004,2539.7807331000004,2549.5599547,2554.5876023,eend,gebaren,0,vleugels,0
21,9.669521500000428,2204.9119514000004,practice,1,2558.1570932000004,2560.1603517000003,2569.7701938,2573.1153773000005,eend,gebaren,1,graven,0
21,9.669521500000428,2204.9119514000004,practice,1,2576.7605408,2578.2232486000003,2587.5480891000007,2597.3520435,eend,gebaren,2,schildpad,0
21,9.669521500000428,2204.9119514000004,practice,1,2602.6630979,2604.9997928000003,2609.9810618,2613.9210952000003,juichen,gebaren,0,juichen,0
21,9.669521500000428,2204.9119514000004,none,1,2617.2235134000002,2622.0101079000005,2629.5718107000002,2632.1070895000003,man,gebaren,0,sterk,0
21,9.669521500000428,2204.9119514000004,none,1,2635.3511960000005,2642.2398955,2650.7407345,2655.5864615,man,gebaren,1,dominant,0
21,9.669521500000428,2204.9119514000004,none,1,2660.1806284000004,2662.0131250000004,2670.1214451000005,2674.4135733000003,man,gebaren,2,geslacht,0
21,9.669521500000428,2204.9119514000004,none,1,2679.3666828000005,2682.5318692,2690.0194955000006,2694.2080479000006,misschien,gebaren,0,twijfelen,0
21,9.669521500000428,2204.9119514000004,none,1,2697.9358184000002,2699.7457968,2705.586759,2709.1684615000004,misschien,gebaren,1,misschien,1
21,9.669521500000428,2204.9119514000004,none,1,2710.6375264,2713.2820711000004,2722.6264101000006,2724.5707992,oud,gebaren,0,oud,2
21,9.669521500000428,2204.9119514000004,none,1,2725.8811182,2728.9440421,2745.2938259000002,2748.7826507,slang,gebaren,0,golvend,0
21,9.669521500000428,2204.9119514000004,none,1,2752.2188877,2758.8710702,2773.3193192,2777.7952951000007,slang,gebaren,1,ratelslang,0
21,9.669521500000428,2204.9119514000004,none,1,2781.9066497000003,2783.7146867,2790.0983615000005,2792.4225018000006,slang,gebaren,2,slang,0.5
21,9.669521500000428,2204.9119514000004,none,1,2793.5663079000005,2796.1955755,2804.0716895000005,2805.8244348,blazen,gebaren,0,lucht,0
21,9.669521500000428,2204.9119514000004,none,1,2808.8100743000005,2810.0152927999998,2816.1500253000004,2819.1346393000003,blazen,gebaren,1,blazen,1
21,9.669521500000428,2204.9119514000004,none,1,2819.9368186,2822.0968568,2829.3839230000003,2834.2952372,drinken,gebaren,0,drinken,2
21,9.669521500000428,2204.9119514000004,none,1,2835.0892684,2837.9503791000006,2847.3849865,2853.0396809000003,lopen,gebaren,0,wandelen,0
21,9.669521500000428,2204.9119514000004,none,1,2856.4176276,2858.9163655,2866.0263810000006,2875.8597522,lopen,gebaren,1,lopen,1
