ID,exp_start,block_start,practice,cycle,display_start,trial_start,trial_end,RT,word,modality,correction,answer,points
22,10.777464100001453,159.17248790000122,practice,0,182.45920699999988,185.53415980000136,188.16767120000077,191.8250693000009,eend,gebaren,0,flapperen,0
22,10.777464100001453,159.17248790000122,practice,0,196.48651020000034,198.6039338999999,203.1698019000014,205.74360740000157,eend,gebaren,1,vogel,0
22,10.777464100001453,159.17248790000122,practice,0,208.7798109000014,212.00015060000078,216.11480330000086,217.38000620000093,eend,gebaren,2,eend,0
22,10.777464100001453,159.17248790000122,practice,0,218.3809893000016,220.39966540000023,222.5003684000003,224.06323970000085,juichen,gebaren,0,juigen,0
22,10.777464100001453,159.17248790000122,none,0,230.59126880000076,232.92526030000045,235.8034553000016,237.35682850000012,kind,gebaren,0,baby,0
22,10.777464100001453,159.17248790000122,none,0,239.9349611000016,240.93601840000156,243.66872850000073,247.19135860000097,kind,gebaren,1,kind,1
22,10.777464100001453,159.17248790000122,none,0,247.99403960000018,249.99111970000013,252.31878450000113,254.7258382,koud,gebaren,0,koud,2
22,10.777464100001453,159.17248790000122,none,0,255.99491280000075,257.7840618000009,260.1272606000002,261.88527969999996,regen,gebaren,0,regen,2
22,10.777464100001453,159.17248790000122,none,0,263.0042924999998,265.68862310000077,268.24181620000127,269.6782380000004,blazen,gebaren,0,blazen,2
22,10.777464100001453,159.17248790000122,none,0,270.45503110000027,271.74811880000016,274.4180841000016,276.1048515000002,horen,gebaren,0,luisteren,0
22,10.777464100001453,159.17248790000122,none,0,278.7151356000013,279.7867203000005,282.3623856000013,283.8385651000008,horen,gebaren,1,horen,1
22,10.777464100001453,159.17248790000122,none,0,285.04090240000005,286.78101290000086,289.5748140000014,290.69799349999994,rennen,gebaren,0,rennen,2
22,10.777464100001453,159.17248790000122,none,0,291.9750980000008,295.24541820000013,298.13961910000035,299.93271989999994,fluisteren,gebaren,0,fluisteren,2
22,10.777464100001453,159.17248790000122,practice,1,346.9581979000013,350.35885770000095,355.29848160000074,357.42524290000074,fiets,gebaren,0,rijden,0
22,10.777464100001453,159.17248790000122,practice,1,360.2857358000001,363.08793420000075,369.52964000000065,371.67666140000074,fiets,gebaren,1,fietsen,0
22,10.777464100001453,159.17248790000122,practice,1,374.67932100000144,375.52974859999995,385.62966120000056,387.46226340000067,fiets,gebaren,2,sturen,0
22,10.777464100001453,159.17248790000122,practice,1,390.38179149999996,392.4841568000011,395.4267935000007,397.4053918999998,glimlach,gebaren,0,lachen,0
22,10.777464100001453,159.17248790000122,practice,1,400.25804830000015,401.24137130000054,404.65561870000056,408.4653156000004,glimlach,gebaren,1,glimlach,0
22,10.777464100001453,159.17248790000122,none,1,411.575793,415.9407219000004,420.3356201000006,425.5593641000014,oud,gebaren,0,kruipen,0
22,10.777464100001453,159.17248790000122,none,1,428.42919000000074,433.3311635000009,438.13068550000025,446.6875097000011,oud,gebaren,1,wandelstok,0
22,10.777464100001453,159.17248790000122,none,1,449.80681880000157,458.1711499000012,467.5158091000012,470.75781780000034,oud,gebaren,2,oud,0.5
22,10.777464100001453,159.17248790000122,none,1,471.82672510000157,474.2100553,477.467780500001,479.4598678000002,verdrietig,gebaren,0,huilen,0
22,10.777464100001453,159.17248790000122,none,1,482.1365283000014,482.96226470000147,487.52894670000023,490.66172430000006,verdrietig,gebaren,1,verdrietig,1
22,10.777464100001453,159.17248790000122,none,1,491.2212113000005,494.76514529999986,497.8561821000003,500.22054110000136,scherp,gebaren,0,niet,0
22,10.777464100001453,159.17248790000122,none,1,503.1233505,505.4446788000005,510.6961573000008,513.1057310000015,scherp,gebaren,1,punt,0
22,10.777464100001453,159.17248790000122,none,1,516.6749770000006,517.9476411000014,525.1235784,536.6009803000015,scherp,gebaren,2,snijden,0
22,10.777464100001453,159.17248790000122,none,1,540.7370269000003,543.0818075000007,546.5162895000012,549.0195853000005,zuur,gebaren,0,vies,0
22,10.777464100001453,159.17248790000122,none,1,551.9305772000007,552.5997342999999,556.6641704000012,558.7292534000007,zuur,gebaren,1,bitter,0
22,10.777464100001453,159.17248790000122,none,1,562.0486431999998,564.155808200001,569.5225993000004,571.9978284000008,zuur,gebaren,2,nasmaak,0
22,10.777464100001453,159.17248790000122,none,1,575.1254562000013,576.7803507000008,579.652979800001,581.5492355000006,vechten,gebaren,0,boksen,0
22,10.777464100001453,159.17248790000122,none,1,583.9853737000012,584.6670318000015,589.1567931999998,592.334146000001,vechten,gebaren,1,vechten,1
22,10.777464100001453,159.17248790000122,none,1,593.060942600001,594.9441780000016,600.3841484000004,603.7108599000003,jagen,gebaren,0,schieten,0
22,10.777464100001453,159.17248790000122,none,1,606.3468711000005,607.6230837000003,613.3252585999999,615.1461130000007,jagen,gebaren,1,jagen,1
22,10.777464100001453,159.17248790000122,none,1,617.0061449000004,619.7675194000003,622.3687381,625.3141153000015,springen,gebaren,0,springen,2
22,10.777464100001453,628.883468,practice,0,686.3582814000001,688.9547055000003,691.8245791999998,693.9909985000013,klok,geluiden,0,klok,0
22,10.777464100001453,628.883468,practice,0,694.6014048000015,698.8123512000002,701.9048705000005,707.0011888000008,bal,geluiden,0,stuiteren,0
22,10.777464100001453,628.883468,practice,0,712.8294491000015,713.4368964000005,718.0750650000009,728.4790969000005,bal,geluiden,1,vallen,0
22,10.777464100001453,628.883468,practice,0,733.3987296000014,739.9492623000006,743.8114435000007,745.8324108000015,bal,geluiden,2,kloppen,0
22,10.777464100001453,628.883468,none,0,751.2679731000007,754.2156246000013,756.528625500001,761.9843225000004,heet,geluiden,0,opluchting,0
22,10.777464100001453,628.883468,none,0,764.5867257999998,765.4613386000001,768.9439376999999,775.3283090000004,heet,geluiden,1,slaan,0
22,10.777464100001453,628.883468,none,0,784.8145466000005,785.9532164000011,789.6376020000007,796.7143682000005,heet,geluiden,2,plassen,0
22,10.777464100001453,628.883468,none,0,801.3843180000003,807.0145957000004,810.3539686000004,816.3754483000012,dik,geluiden,0,vliegtug,0
22,10.777464100001453,628.883468,none,0,821.1040878000003,821.9605453000004,825.1123054,826.7352477000004,dik,geluiden,1,boer,0
22,10.777464100001453,628.883468,none,0,832.8223249000002,836.3015389000011,839.8342107000008,845.1305100999998,dik,geluiden,2,grasmaaier,0
22,10.777464100001453,628.883468,none,0,850.7162095000003,853.3533793000006,855.9234573000012,857.1648675000015,eten,geluiden,0,eten,2
22,10.777464100001453,628.883468,none,0,858.5339389000001,862.1184226000005,864.7574898000003,870.0167861000009,slaan,geluiden,0,neerploffen,0
22,10.777464100001453,628.883468,none,0,874.0117086000009,875.0535997000006,878.8260348000003,885.9117340000012,slaan,geluiden,1,zitten,0
22,10.777464100001453,628.883468,none,0,889.8054467000002,891.9708418999999,894.7306625000001,896.2040211000003,slaan,geluiden,2,slaan,0.5
22,10.777464100001453,628.883468,none,0,897.4311557000001,900.0807206999998,902.4204690000006,904.8969331000008,ruiken,geluiden,0,snikken,0
22,10.777464100001453,628.883468,none,0,907.8498959000008,908.5819080000001,910.9049922000013,912.7398775000001,ruiken,geluiden,1,inademen,0
22,10.777464100001453,628.883468,none,0,915.5845230000014,917.4014361999998,920.1469537000012,934.4929976000003,ruiken,geluiden,2,verdrietig,0
22,10.777464100001453,628.883468,none,0,938.7048971000004,941.2873875000005,945.4688901000009,948.2117802000012,zwemmen,geluiden,0,zwemmen,2
22,10.777464100001453,628.883468,none,0,949.4721696000015,952.4204551000003,955.2042020000008,956.4545160000016,gooien,geluiden,0,wind,0
22,10.777464100001453,628.883468,none,0,959.7328462000005,960.9550114000012,964.1908946000003,976.0907789000012,gooien,geluiden,1,windstoot,0
22,10.777464100001453,628.883468,none,0,979.1602028000016,983.6917870000016,987.3960333000014,990.4012949000007,gooien,geluiden,2,stoot,0
22,10.777464100001453,628.883468,practice,1,1040.2942349000004,1046.2449562000002,1051.7221631000011,1054.2856558000003,vliegtuig,geluiden,0,wind,0
22,10.777464100001453,628.883468,practice,1,1059.3136968,1059.8961233999999,1068.0099623000006,1072.0466226000008,vliegtuig,geluiden,1,waaien,0
22,10.777464100001453,628.883468,practice,1,1075.3994514000005,1081.44492,1088.604245300001,1092.0670022000013,vliegtuig,geluiden,2,stofzuigen,0
22,10.777464100001453,628.883468,practice,1,1095.3605493000014,1102.8157322000006,1107.7048185000003,1112.7274640000014,sneeuw,geluiden,0,fluisteren,0
22,10.777464100001453,628.883468,practice,1,1115.9224748000015,1116.8847748000007,1123.8050485000003,1126.163110900001,sneeuw,geluiden,1,klein,0
22,10.777464100001453,628.883468,practice,1,1129.9156347000007,1130.9685192000015,1138.9338911000013,1141.0066153000007,sneeuw,geluiden,2,zacht,0
22,10.777464100001453,628.883468,none,1,1149.1351758,1153.5577045999999,1156.1386395000009,1157.9675907,boos,geluiden,0,boos,2
22,10.777464100001453,628.883468,none,1,1159.1531662000016,1161.1773591,1165.8913281000005,1173.9130941000003,zoemen,geluiden,0,stofzuigen,0
22,10.777464100001453,628.883468,none,1,1177.6478407000013,1179.0986979000008,1183.834847,1186.2391993,zoemen,geluiden,1,bij,0
22,10.777464100001453,628.883468,none,1,1189.6162557000007,1193.7111025000013,1199.4767270000011,1201.3406617,zoemen,geluiden,2,vlieg,0
22,10.777464100001453,628.883468,none,1,1205.2938166000004,1208.1081951000015,1211.5415271000002,1212.6756952000014,kat,geluiden,0,kat,2
22,10.777464100001453,628.883468,none,1,1213.2694212000006,1220.5922605000014,1223.0790657000016,1225.1106712,goed,geluiden,0,lekker,0
22,10.777464100001453,628.883468,none,1,1227.5970914000009,1228.5533825000002,1232.2629287,1235.3626050000003,goed,geluiden,1,genieten,0
22,10.777464100001453,628.883468,none,1,1238.1984963000014,1239.1689432000003,1242.0474098000013,1246.7557008000003,goed,geluiden,2,proeven,0
22,10.777464100001453,628.883468,none,1,1250.2751724000009,1252.9448968000015,1257.522361200001,1259.2658002000007,zwaar,geluiden,0,balen,0
22,10.777464100001453,628.883468,none,1,1262.4854156000001,1263.9325045000005,1267.4093282000013,1270.5007262,zwaar,geluiden,1,stoten,0
22,10.777464100001453,628.883468,none,1,1273.3532495,1278.786888300001,1285.3103410000003,1286.8282743,zwaar,geluiden,2,balen,0
22,10.777464100001453,628.883468,none,1,1293.7645600000014,1299.2179966000003,1305.5865411000013,1311.0067219000011,berg,geluiden,0,bedenken,0
22,10.777464100001453,628.883468,none,1,1315.9270117000015,1317.4425210000009,1325.0108228000008,1329.3017345000007,berg,geluiden,1,neurien,0
22,10.777464100001453,628.883468,none,1,1332.0540926000012,1334.9218309000007,1341.989142800001,1349.7292435,berg,geluiden,2,genieten,0
22,10.777464100001453,628.883468,none,1,1353.3988614999998,1356.590778400001,1360.1949216000012,1362.4402215999999,bang,geluiden,0,schrikken,0
22,10.777464100001453,628.883468,none,1,1364.9669908000014,1365.4906607000012,1368.2072220999999,1369.907282600001,bang,geluiden,1,bang,1
22,10.777464100001453,1372.1340989,practice,0,1423.1253606999999,1426.7383625000002,1429.1071821000005,1431.799858800001,telefoon,combinatie,0,bellen,0
22,10.777464100001453,1372.1340989,practice,0,1435.4026716000008,1436.3059342000015,1441.3338984000002,1451.1942571,telefoon,combinatie,1,telefoneren,0
22,10.777464100001453,1372.1340989,practice,0,1454.1551251,1455.1376145000013,1459.477812000001,1464.8379174000002,telefoon,combinatie,2,telefoon,0
22,10.777464100001453,1372.1340989,practice,0,1466.3982618999999,1469.0362836000004,1471.5873721000007,1473.3480295999998,zingen,combinatie,0,zingen,0
22,10.777464100001453,1372.1340989,none,0,1478.0332935000006,1480.8753354,1483.6061293000002,1484.9242976000005,vogel,combinatie,0,vliegen,0
22,10.777464100001453,1372.1340989,none,0,1487.6518100000012,1489.0988608000007,1492.3553153000012,1503.0101250000007,vogel,combinatie,1,eend,0
22,10.777464100001453,1372.1340989,none,0,1506.0966492000007,1508.7828229000006,1513.4561832,1515.6121709,vogel,combinatie,2,vogel,0.5
22,10.777464100001453,1372.1340989,none,0,1516.789412,1518.2688923000005,1522.794836500001,1529.7390391000008,vrouw,combinatie,0,jezelf,0
22,10.777464100001453,1372.1340989,none,0,1532.4922891000006,1535.0571026000016,1538.4988994000014,1553.5424961000008,vrouw,combinatie,1,dutje,0
22,10.777464100001453,1372.1340989,none,0,1556.5039651000006,1560.6517354000007,1565.1712208000008,1570.028325700001,vrouw,combinatie,2,seks,0
22,10.777464100001453,1372.1340989,none,0,1573.3396779000013,1577.2826370000002,1584.5803219999998,1591.5732615000015,man,combinatie,0,man,2
22,10.777464100001453,1372.1340989,none,0,1595.475760700001,1597.8492987000009,1601.4071737000013,1605.1836127000006,staart,combinatie,0,afvegen,0
22,10.777464100001453,1372.1340989,none,0,1608.0281437000012,1608.8953917,1613.1823205,1615.6937932,staart,combinatie,1,scheet,0
22,10.777464100001453,1372.1340989,none,0,1618.9291079000013,1620.1244596000015,1626.0953639,1628.5704588000008,staart,combinatie,2,kwispelen,0
22,10.777464100001453,1372.1340989,none,0,1631.2811702,1633.7426722,1636.5181174000008,1642.8974937000003,vangen,combinatie,0,windstoot,0
22,10.777464100001453,1372.1340989,none,0,1646.1169662000011,1647.2842412999998,1651.886936500001,1653.2421018000005,vangen,combinatie,1,vangen,1
22,10.777464100001453,1372.1340989,none,0,1653.8177692000008,1657.7700372,1660.9392078,1664.6340172,kauwen,combinatie,0,kauwen,2
22,10.777464100001453,1372.1340989,none,0,1666.0696419000014,1668.474189300001,1670.7241322999998,1675.961771100001,staan,combinatie,0,neerzetten,0
22,10.777464100001453,1372.1340989,none,0,1679.4637060000005,1680.1691613000003,1683.7221559999998,1703.7067425000005,staan,combinatie,1,staan,1
22,10.777464100001453,1372.1340989,practice,1,1772.1940777,1774.0492393000004,1777.1571965000003,1779.9100927,zwaaien,combinatie,0,zwaaien,0
22,10.777464100001453,1372.1340989,practice,1,1781.311678,1784.5494983000008,1789.5433516000012,1792.9362091000003,geheim,combinatie,0,fluisteren,0
22,10.777464100001453,1372.1340989,practice,1,1796.147058300001,1800.1481019000003,1806.1267622000014,1808.7392708000007,geheim,combinatie,1,roddelen,0
22,10.777464100001453,1372.1340989,practice,1,1811.6581075000013,1812.5119889000016,1816.9986790000003,1823.441127600001,geheim,combinatie,2,praten,0
22,10.777464100001453,1372.1340989,none,1,1829.9520215000011,1832.4575184000005,1835.8812497,1837.8940324000014,walgen,combinatie,0,kotsen,0
22,10.777464100001453,1372.1340989,none,1,1841.9792684000004,1842.799276400001,1846.3040044000008,1848.544518300001,walgen,combinatie,1,walgen,1
22,10.777464100001453,1372.1340989,none,1,1849.980111500001,1852.176623700001,1854.961740300001,1857.1874379,snel,combinatie,0,rennen,0
22,10.777464100001453,1372.1340989,none,1,1859.815104700001,1860.6568263000008,1863.6602985000009,1873.8482662000006,snel,combinatie,1,snel,1
22,10.777464100001453,1372.1340989,none,1,1875.3504170000015,1877.7026072000008,1881.5105542000001,1884.6748435000009,vlieg,combinatie,0,mug,0
22,10.777464100001453,1372.1340989,none,1,1888.4113006000007,1889.729210900001,1893.678432300001,1895.6347628000003,vlieg,combinatie,1,vlieg,1
22,10.777464100001453,1372.1340989,none,1,1896.4286281000004,1898.8413923000007,1901.2552409,1904.8860282000005,blij,combinatie,0,glimlachen,0
22,10.777464100001453,1372.1340989,none,1,1907.7807346999998,1908.6548014,1911.2932383000007,1913.4290946,blij,combinatie,1,lachen,0
22,10.777464100001453,1372.1340989,none,1,1916.0821069000012,1917.017955700001,1920.1805463,1922.9804910000003,blij,combinatie,2,giegelen,0
22,10.777464100001453,1372.1340989,none,1,1926.4164454000002,1928.8336815000002,1933.8280245000005,1936.3990913000016,hoog,combinatie,0,vraag,0
22,10.777464100001453,1372.1340989,none,1,1939.6848020000016,1941.3458663000001,1945.631581900001,1955.0601287000009,hoog,combinatie,1,wijzen,0
22,10.777464100001453,1372.1340989,none,1,1958.0298983000012,1960.0969622000011,1964.8292383000007,1966.253568,hoog,combinatie,2,hoog,0.5
22,10.777464100001453,1372.1340989,none,1,1967.5554022000015,1970.174606300001,1972.8092885000005,1975.3548914000003,sterk,combinatie,0,sterk,2
22,10.777464100001453,1372.1340989,none,1,1976.0903141,1978.0821517000004,1982.823921700001,1984.5979036000008,ademen,combinatie,0,ademen,2
