ID,exp_start,block_start,practice,cycle,display_start,trial_start,trial_end,RT,word,modality,correction,answer,points
36,9.365537300000142,291.25183059999836,practice,0,430.4888876999976,434.63833039999736,440.6475412999971,443.28065629999764,klok,geluiden,0,paard,0
36,9.365537300000142,291.25183059999836,practice,0,455.0846684999997,460.4151716999986,466.92118279999704,469.5094871000001,klok,geluiden,1,klok,0
36,9.365537300000142,291.25183059999836,practice,0,470.6283368999975,480.37492179999754,489.9671783999984,493.2964264999973,glimlach,geluiden,0,lachen,0
36,9.365537300000142,291.25183059999836,practice,0,498.16585309999937,502.45639909999954,504.6781835999973,519.7752622999978,glimlach,geluiden,1,glimlachen,0
36,9.365537300000142,291.25183059999836,none,0,527.4867997000001,533.5523423999985,538.4451921999971,544.6868598000001,bitter,geluiden,0,walgen,0
36,9.365537300000142,291.25183059999836,none,0,549.4984188999988,554.397524699998,564.2676885999972,568.9741361999986,bitter,geluiden,1,vies,0
36,9.365537300000142,291.25183059999836,none,0,572.8770579999982,576.0205494000002,582.5644061999992,586.3347993999996,bitter,geluiden,2,zuur,0
36,9.365537300000142,291.25183059999836,none,0,591.2293731999998,594.7357484999993,599.9974287999976,607.1713726999988,niet,geluiden,0,slurpen,0
36,9.365537300000142,291.25183059999836,none,0,611.3491942999972,612.3296847999991,616.2968535,636.3673646999996,niet,geluiden,1,afwijzen,0
36,9.365537300000142,291.25183059999836,none,0,640.5117270999981,642.0264571999978,647.1929132000005,672.4643475999983,niet,geluiden,2,teleurgesteld,0
36,9.365537300000142,291.25183059999836,none,0,676.5419440999976,697.5780149999991,706.4687898999982,711.4283410999997,klein,geluiden,0,baby,0
36,9.365537300000142,291.25183059999836,none,0,714.7477572999996,725.5793005999985,745.2087518999979,754.3344387999969,klein,geluiden,1,lammetje,0
36,9.365537300000142,291.25183059999836,none,0,758.7123305999994,769.1950871999979,782.5791546,784.5480221999969,klein,geluiden,2,snikken,0
36,9.365537300000142,291.25183059999836,none,0,789.1835790000005,799.7298050999998,804.359262599999,813.7351722999992,vangen,geluiden,0,gooien,0
36,9.365537300000142,291.25183059999836,none,0,819.7299313999974,823.7936869999976,831.1443448999999,851.715583199999,vangen,geluiden,1,vangen,1
36,9.365537300000142,291.25183059999836,none,0,852.9510289999998,861.0675520999976,868.3132108999998,871.5190896999993,grommen,geluiden,0,grommen,2
36,9.365537300000142,291.25183059999836,none,0,872.8956944999991,880.0987824000003,885.5865221999993,900.5974451999973,slaan,geluiden,0,deur,0
36,9.365537300000142,291.25183059999836,none,0,904.792094299999,913.1057116999982,917.2216838999993,920.058909299998,slaan,geluiden,1,knal,0
36,9.365537300000142,291.25183059999836,none,0,923.5031340999994,931.6177083000002,936.4223788999989,939.4451456999996,slaan,geluiden,2,slaan,0.5
36,9.365537300000142,291.25183059999836,none,0,940.839000699998,942.9998828999996,948.104390499997,966.4073735999991,ruiken,geluiden,0,snikken,0
36,9.365537300000142,291.25183059999836,none,0,971.5847460000005,972.5611408999976,978.3753724999988,980.7426978000003,ruiken,geluiden,1,ruiken,1
36,9.365537300000142,291.25183059999836,practice,1,1043.0286694999995,1044.2641608999984,1049.4486934999986,1053.0950366999969,telefoon,geluiden,0,telefoon,0
36,9.365537300000142,291.25183059999836,practice,1,1054.413564999999,1056.7736753999998,1060.5142314999975,1063.1049133999986,juichen,geluiden,0,blij,0
36,9.365537300000142,291.25183059999836,practice,1,1069.6415172999987,1070.3495760999976,1074.9501192999996,1080.1738604999991,juichen,geluiden,1,gewonnen,0
36,9.365537300000142,291.25183059999836,practice,1,1085.5437980999995,1099.5072330000003,1115.1140252999976,1120.1799399999982,juichen,geluiden,2,juichen,0
36,9.365537300000142,291.25183059999836,none,1,1124.5572705999984,1152.0582834999987,1156.7294077999977,1164.3033223999992,vrouw,geluiden,0,gelukkig,0
36,9.365537300000142,291.25183059999836,none,1,1170.5393676999993,1172.3366515999987,1177.944682399997,1188.190619099998,vrouw,geluiden,1,koppel,0
36,9.365537300000142,291.25183059999836,none,1,1192.976074099999,1193.6667127,1199.0207520999975,1201.7752341999985,vrouw,geluiden,2,vrolijk,0
36,9.365537300000142,291.25183059999836,none,1,1206.1529456999997,1215.0677907999998,1221.187564099997,1226.995644499999,goed,geluiden,0,duidelijk,0
36,9.365537300000142,291.25183059999836,none,1,1231.7734356,1232.6445855999991,1237.0100007,1239.6892028999973,goed,geluiden,1,deurbel,0
36,9.365537300000142,291.25183059999836,none,1,1243.3418196999992,1244.0622742999985,1250.7718467999985,1253.3911833999991,goed,geluiden,2,correct,0
36,9.365537300000142,291.25183059999836,none,1,1256.6021005999974,1270.4949409999972,1277.9490192999983,1281.4123624999993,hoog,geluiden,0,vallen,0
36,9.365537300000142,291.25183059999836,none,1,1286.5813729999973,1297.0890082999977,1299.5233986999992,1303.8152009999976,hoog,geluiden,1,vliegtuig,0
36,9.365537300000142,291.25183059999836,none,1,1310.4269195999987,1316.2012934999984,1320.2585588999973,1327.2520506999972,hoog,geluiden,2,zingen,0
36,9.365537300000142,291.25183059999836,none,1,1333.3050981999986,1347.8612022999987,1354.1363263999992,1356.7229731999978,oud,geluiden,0,denken,0
36,9.365537300000142,291.25183059999836,none,1,1360.7923747999994,1361.5224646999995,1368.0981809999976,1374.9839788999998,oud,geluiden,1,zeuren,0
36,9.365537300000142,291.25183059999836,none,1,1380.0283128999981,1389.8879562999973,1396.312163399998,1398.4040959999984,oud,geluiden,2,boos,0
36,9.365537300000142,291.25183059999836,none,1,1402.4482418999978,1410.9690023999974,1414.6324177999995,1416.4983928999973,bijten,geluiden,0,eten,0
36,9.365537300000142,291.25183059999836,none,1,1420.9764789999972,1422.151767299998,1426.2157980999982,1430.4088201999984,bijten,geluiden,1,kauwen,0
36,9.365537300000142,291.25183059999836,none,1,1434.5113332999972,1439.4732712999976,1443.302507999997,1445.7444163999971,bijten,geluiden,2,stikken,0
36,9.365537300000142,291.25183059999836,none,1,1450.4971598999982,1464.2927251999972,1473.0574071999981,1476.0739633999983,jagen,geluiden,0,ontploffing,0
36,9.365537300000142,291.25183059999836,none,1,1480.6435767999974,1482.1095989999994,1489.9560251999974,1492.4844606999977,jagen,geluiden,1,opblazen,0
36,9.365537300000142,291.25183059999836,none,1,1498.7628473999976,1506.9247924999981,1515.670116199999,1518.5722478999996,jagen,geluiden,2,vallen,0
36,9.365537300000142,291.25183059999836,none,1,1521.7406426999987,1531.9246660999997,1544.4937649999993,1546.7340930999999,rennen,geluiden,0,sporten,0
36,9.365537300000142,291.25183059999836,none,1,1556.2708332000002,1559.617320999998,1566.5811594999977,1581.3559011999969,rennen,geluiden,1,gewichtheffen,0
36,9.365537300000142,291.25183059999836,none,1,1586.3589538999986,1597.8850934999973,1606.8741048999982,1609.134988599999,rennen,geluiden,2,rennen,0.5
36,9.365537300000142,1615.3462990999979,practice,0,1731.237976299999,1735.6306022999997,1739.8029638999978,1744.113118899997,zwaaien,combinatie,0,zwaaien,0
36,9.365537300000142,1615.3462990999979,practice,0,1744.8150005999996,1750.6192417999991,1756.472063199999,1760.1905862999993,geheim,combinatie,0,stilte,0
36,9.365537300000142,1615.3462990999979,practice,0,1765.1183547,1768.6925916,1773.9648983999978,1787.919417099998,geheim,combinatie,1,fluisteren,0
36,9.365537300000142,1615.3462990999979,practice,0,1791.9471517999991,1793.862991099999,1800.6523936999984,1813.0818798999971,geheim,combinatie,2,stilte,0
36,9.365537300000142,1615.3462990999979,none,0,1821.2179230999973,1826.8496988999977,1832.446827599997,1835.3931994999984,boos,combinatie,0,vechten,0
36,9.365537300000142,1615.3462990999979,none,0,1839.204262299998,1844.959600899998,1849.3426921999999,1864.4645511999988,boos,combinatie,1,stoer,0
36,9.365537300000142,1615.3462990999979,none,0,1869.191694699999,1875.3922084999977,1880.1035013999972,1882.541884899998,boos,combinatie,2,ruzie,0
36,9.365537300000142,1615.3462990999979,none,0,1887.2445931000002,1894.994800299999,1900.5572950999995,1905.0949866999981,groot,combinatie,0,luchtballin,0
36,9.365537300000142,1615.3462990999979,none,0,1910.2979959999975,1911.7452121999995,1916.9395091999977,1920.755699999998,groot,combinatie,1,omhooh,0
36,9.365537300000142,1615.3462990999979,none,0,1925.9669400999992,1932.8836703999987,1942.8950224,1947.8855633999992,groot,combinatie,2,lang,0
36,9.365537300000142,1615.3462990999979,none,0,1951.8541842999985,1956.8410029999977,1961.7952901999997,1964.2703810999992,geur,combinatie,0,ruiken,0
36,9.365537300000142,1615.3462990999979,none,0,1967.239581599999,1973.6415559999987,1978.7833947,1983.0231859999985,geur,combinatie,1,geur,1
36,9.365537300000142,1615.3462990999979,none,0,1984.1501331,1992.1605519000004,2001.7157530000004,2004.9595967999994,staart,combinatie,0,scheet,0
36,9.365537300000142,1615.3462990999979,none,0,2009.1289270999987,2021.4460861999978,2032.8224560999988,2051.5162963999974,staart,combinatie,1,verrassing,0
36,9.365537300000142,1615.3462990999979,none,0,2056.7859771000003,2059.616469299999,2069.1020919999974,2071.3110239999987,staart,combinatie,2,staart,0.5
36,9.365537300000142,1615.3462990999979,none,0,2072.129744599999,2075.3544650000003,2080.271042299999,2083.5712214999985,onweer,combinatie,0,klap,0
36,9.365537300000142,1615.3462990999979,none,0,2086.9753308,2089.9740515999983,2094.8640935999974,2100.1737445,onweer,combinatie,1,knal,0
36,9.365537300000142,1615.3462990999979,none,0,2104.334192099999,2106.1265459999995,2113.327503299999,2122.701877299998,onweer,combinatie,2,explosie,0
36,9.365537300000142,1615.3462990999979,none,0,2127.4130729999997,2131.520380099999,2138.7842586999977,2146.4221698999972,geven,combinatie,0,voorstellen,0
36,9.365537300000142,1615.3462990999979,none,0,2150.991512299999,2153.5307995999974,2159.766224699997,2164.3830420999984,geven,combinatie,1,geven,1
36,9.365537300000142,1615.3462990999979,none,0,2165.251600399999,2168.7803571000004,2176.1443868999995,2183.860892599998,zwemmen,combinatie,0,zwemmen,2
36,9.365537300000142,1615.3462990999979,practice,1,2227.6107207999994,2232.3884841,2239.1225457,2245.3115967999984,bal,combinatie,0,basketbal,0
36,9.365537300000142,1615.3462990999979,practice,1,2252.6564504999988,2257.482906999998,2263.876344199998,2267.3815400999993,bal,combinatie,1,sporten,0
36,9.365537300000142,1615.3462990999979,practice,1,2270.5759131999985,2271.7281105999973,2280.538678599998,2292.7024545999993,bal,combinatie,2,luchtballon,0
36,9.365537300000142,1615.3462990999979,practice,1,2298.8802173999975,2302.8453873,2306.4257534999997,2309.7627957999975,eend,combinatie,0,eend,0
36,9.365537300000142,1615.3462990999979,none,1,2312.155821799999,2320.061470299999,2324.9053007,2328.1235530999984,zoemen,combinatie,0,snel,0
36,9.365537300000142,1615.3462990999979,none,1,2331.3179409000004,2339.5556722,2346.844917399998,2349.8267306999987,zoemen,combinatie,1,raceauto,0
36,9.365537300000142,1615.3462990999979,none,1,2354.588331699997,2359.4915712999973,2371.0585527000003,2374.1138253999998,zoemen,combinatie,2,vliegtuig,0
36,9.365537300000142,1615.3462990999979,none,1,2378.124894499997,2384.073948199999,2390.148298,2391.1830574999985,ei,combinatie,0,ei,2
36,9.365537300000142,1615.3462990999979,none,1,2391.626583199999,2397.630171599998,2407.485198399998,2412.1860715999974,vuur,combinatie,0,heet,0
36,9.365537300000142,1615.3462990999979,none,1,2417.3472363,2421.795634799997,2430.9930480000003,2432.455739199999,vuur,combinatie,1,vuur,1
36,9.365537300000142,1615.3462990999979,none,1,2433.082381199998,2436.3320107,2440.755412499999,2442.0904300999973,heet,combinatie,0,heet,2
36,9.365537300000142,1615.3462990999979,none,1,2442.642474799999,2445.328743599999,2452.9962834,2455.8091234999993,verdrietig,combinatie,0,teleurgesteld,0
36,9.365537300000142,1615.3462990999979,none,1,2459.6448714,2460.508335499999,2469.479534099999,2471.7614305999996,verdrietig,combinatie,1,verdrietig,1
36,9.365537300000142,1615.3462990999979,none,1,2473.2385652999983,2475.821256299998,2480.8274893999987,2482.9629069000002,blazen,combinatie,0,blazen,2
36,9.365537300000142,1615.3462990999979,none,1,2485.581887799999,2489.3061787999977,2495.8255124999996,2498.2903971999986,fluisteren,combinatie,0,roddelen,0
36,9.365537300000142,1615.3462990999979,none,1,2502.001286499999,2503.474134199998,2511.518540899997,2513.976011999999,fluisteren,combinatie,1,smiespelen,0
36,9.365537300000142,1615.3462990999979,none,1,2519.7459659999986,2523.5253725999974,2533.230011899999,2535.2790640999992,fluisteren,combinatie,2,fluisteren,0.5
36,9.365537300000142,2539.8734984000002,practice,0,2576.003991499998,2587.4790101,2597.6352713999986,2600.705300499998,vliegtuig,gebaren,0,vliegen,0
36,9.365537300000142,2539.8734984000002,practice,0,2606.2834258999974,2608.017374799998,2614.874802299997,2617.900190299999,vliegtuig,gebaren,1,vogel,0
36,9.365537300000142,2539.8734984000002,practice,0,2623.3525725,2626.7624596999995,2635.9502993999995,2639.752826599997,vliegtuig,gebaren,2,vliegtuig,0
36,9.365537300000142,2539.8734984000002,practice,0,2641.7214077999997,2645.7274891999987,2655.1647400999973,2661.247470099999,fiets,gebaren,0,auto,0
36,9.365537300000142,2539.8734984000002,practice,0,2668.6338705999988,2670.384961399999,2679.5309027999974,2683.8673581999974,fiets,gebaren,1,fietsen,0
36,9.365537300000142,2539.8734984000002,practice,0,2687.7036143999976,2689.784175099998,2697.5200984000003,2699.611572499998,fiets,gebaren,2,fiets,0
36,9.365537300000142,2539.8734984000002,none,0,2704.8390622999977,2711.290486599999,2716.086572,2722.4649277999997,bang,gebaren,0,vluchten,0
36,9.365537300000142,2539.8734984000002,none,0,2728.2606841999987,2730.848523299999,2736.2431524999993,2747.635103999997,bang,gebaren,1,bang,1
36,9.365537300000142,2539.8734984000002,none,0,2749.945570099997,2754.791240399998,2761.700500799998,2772.880706199998,scherp,gebaren,0,scheermes,2
36,9.365537300000142,2539.8734984000002,none,0,2773.8915347999973,2786.730201299997,2796.655632799997,2804.710271,ziek,gebaren,0,niezen,0
36,9.365537300000142,2539.8734984000002,none,0,2808.621298099999,2809.934117099998,2817.915209999999,2836.5816148999984,ziek,gebaren,1,nachtmerrie,0
36,9.365537300000142,2539.8734984000002,none,0,2841.6012445999986,2846.5381194,2855.0181239999984,2880.088012999997,ziek,gebaren,2,gapen,0
36,9.365537300000142,2539.8734984000002,none,0,2887.4495693999997,2891.303498199999,2898.756014499999,2905.2581654999994,langzaam,gebaren,0,langzaam,2
36,9.365537300000142,2539.8734984000002,none,0,2906.3769802999996,2910.6572221999995,2917.5832260999996,2921.9608310000003,kruipen,gebaren,0,kruipen,2
36,9.365537300000142,2539.8734984000002,none,0,2922.6547981000003,2925.5563091000004,2931.751817999997,2935.712859299998,staan,gebaren,0,vrouw,0
36,9.365537300000142,2539.8734984000002,none,0,2939.3322130999986,2942.6203628999974,2949.9119876000004,2951.806777499998,staan,gebaren,1,staan,1
36,9.365537300000142,2539.8734984000002,none,0,2952.9594203999986,2955.675002099997,2962.325984199997,2966.8257350999993,lopen,gebaren,0,wandelen,0
36,9.365537300000142,2539.8734984000002,none,0,2970.9119715999987,2971.6677232999973,2979.1945142000004,2982.336405099999,lopen,gebaren,1,lopen,1
36,9.365537300000142,2539.8734984000002,practice,1,3011.700697,3017.7535119999993,3026.340931499999,3027.8846661999996,zingen,gebaren,0,zingen,0
36,9.365537300000142,2539.8734984000002,practice,1,3030.7119494,3034.557352,3042.5561481000004,3044.270421399997,sneeuw,gebaren,0,sneeuw,0
36,9.365537300000142,2539.8734984000002,none,1,3049.3229199999987,3054.093002399997,3058.283228299999,3061.1812088999977,ik,gebaren,0,komen,0
36,9.365537300000142,2539.8734984000002,none,1,3066.9920968999977,3068.254111799997,3075.2617890999973,3076.4002077999976,ik,gebaren,1,man,0
36,9.365537300000142,2539.8734984000002,none,1,3080.027742099999,3082.5910267,3092.1551389999986,3093.244207399999,ik,gebaren,2,hier,0
36,9.365537300000142,2539.8734984000002,none,1,3098.0386192999977,3101.758353999998,3107.914990199999,3110.9968856999985,vogel,gebaren,0,vliegen,0
36,9.365537300000142,2539.8734984000002,none,1,3115.6497352999977,3117.7334773000002,3125.4600960999996,3131.0746624999992,vogel,gebaren,1,zweven,0
36,9.365537300000142,2539.8734984000002,none,1,3134.886024399999,3138.0818495999993,3152.9705269999977,3154.6622191999995,vogel,gebaren,2,vogel,0.5
36,9.365537300000142,2539.8734984000002,none,1,3156.205554,3161.1394746999977,3169.987960399998,3170.9641144999987,kat,gebaren,0,kat,2
36,9.365537300000142,2539.8734984000002,none,1,3174.007985799999,3177.6260048999975,3185.256195799997,3186.7413218999973,blij,gebaren,0,blij,2
36,9.365537300000142,2539.8734984000002,none,1,3187.884809299998,3197.4136187999975,3206.5545184999974,3208.5608981999976,zout,gebaren,0,proeven,0
36,9.365537300000142,2539.8734984000002,none,1,3212.0553968999993,3213.800823999998,3223.1917809999977,3225.697036499998,zout,gebaren,1,kruiden,0
36,9.365537300000142,2539.8734984000002,none,1,3232.6003179,3237.053936199998,3249.5477396999995,3252.1592789999995,zout,gebaren,2,vies,0
36,9.365537300000142,2539.8734984000002,none,1,3257.6455492999994,3260.1945349999987,3267.1688909000004,3268.6285097,sterk,gebaren,0,sterk,2
36,9.365537300000142,2539.8734984000002,none,1,3269.963737099999,3273.3282717,3279.4322625999994,3281.1885476999996,kotsen,gebaren,0,kotsen,2
