ID,exp_start,block_start,practice,cycle,display_start,trial_start,trial_end,RT,word,modality,correction,answer,points
36,6.7267031999999745,324.3474287000008,practice,0,471.5359222999996,476.83441029999994,485.757689,496.88818469999933,koken,combinatie,,roeren,0
36,6.7267031999999745,324.3474287000008,practice,0,496.9398157000014,502.48360630000207,510.19121560000167,513.9902783999987,olifant,combinatie,,olifant,0
36,6.7267031999999745,324.3474287000008,none,0,518.801338700001,522.8455013000003,528.5529133,531.9262733000014,vis,combinatie,,vis,1
36,6.7267031999999745,324.3474287000008,none,0,531.9701492000004,538.8696742000011,544.5567208000011,549.2787928999987,bliksem,combinatie,,bliksem,1
36,6.7267031999999745,324.3474287000008,none,0,549.3224734000014,553.023592800002,560.5095093,563.5725547999991,kauwen,combinatie,,kauwen,1
36,6.7267031999999745,324.3474287000008,none,0,563.607821399999,566.2021561999991,571.9400131999992,582.833822999999,drinken,combinatie,,drinken,1
36,6.7267031999999745,324.3474287000008,none,0,582.8775566999993,586.360036600001,592.9486269999998,596.6775954999994,vechten,combinatie,,boksen,0
36,6.7267031999999745,324.3474287000008,none,0,596.7126288000018,600.7063718000009,605.2860171000011,607.9292322000019,lachen,combinatie,,lachen,1
36,6.7267031999999745,324.3474287000008,none,0,607.9646284999999,609.5189406000009,616.5862472999997,619.7060008999997,slapen,combinatie,,slapen,1
36,6.7267031999999745,324.3474287000008,practice,1,723.4896935000015,724.7888303000018,738.9024979000005,743.9823749000007,rijk,combinatie,,geld,0
36,6.7267031999999745,324.3474287000008,practice,1,744.0343890999993,748.3719365999987,755.2904246999988,760.8433142000013,comfortabel,combinatie,,opgelucht,0
36,6.7267031999999745,324.3474287000008,none,1,765.1375115999999,767.9399603000002,772.389382899999,775.6871824999998,koud,combinatie,,koud,1
36,6.7267031999999745,324.3474287000008,none,1,775.7306262000002,779.0775432999999,786.0906171000006,792.472906500001,walgen,combinatie,,vies,0
36,6.7267031999999745,324.3474287000008,none,1,792.5079454999996,798.3315453000014,805.0091076000008,807.8418399999991,ver,combinatie,,zoeken,0
36,6.7267031999999745,324.3474287000008,none,1,807.8852121,809.1241819000006,816.7538783,822.3689481999991,luidruchtig,combinatie,,grappig,0
36,6.7267031999999745,324.3474287000008,none,1,822.404191399999,825.8311140999995,830.9690104999991,833.7874164000004,slang,combinatie,,slang,1
36,6.7267031999999745,324.3474287000008,none,1,833.8223439000012,836.4325967999994,840.1148163999987,844.4972609999986,huilen,combinatie,,baby,0
36,6.7267031999999745,324.3474287000008,none,1,844.5321544000017,848.0040692999992,852.2653910999998,855.798818199999,horen,combinatie,,luisteren,0
36,6.7267031999999745,859.0262834000005,practice,0,968.7088719000003,973.4962318000016,981.5021051999993,988.4183276999993,snijden,geluiden,,blazen,0
36,6.7267031999999745,859.0262834000005,practice,0,988.4617588000019,994.168969100001,1003.4800536000021,1033.4169394,bloem,geluiden,,rollen,0
36,6.7267031999999745,859.0262834000005,none,0,1040.8860890000014,1042.7334758000015,1048.9274986,1053.352871000001,berg,geluiden,,wind,0
36,6.7267031999999745,859.0262834000005,none,0,1053.3880427999993,1056.639047499999,1063.718350199999,1080.0484426999992,regen,geluiden,,tikken,0
36,6.7267031999999745,859.0262834000005,none,0,1080.0920897000015,1088.938219400001,1094.7793172000002,1100.9514940999998,verbranden,geluiden,,blazen,0
36,6.7267031999999745,859.0262834000005,none,0,1100.9866896000003,1106.3505537,1114.420414099999,1118.4465585000016,vliegen,geluiden,,golven,0
36,6.7267031999999745,859.0262834000005,none,0,1118.4894456999991,1121.0669839999991,1126.1914502000018,1128.6639472000006,weten,geluiden,,lekker,0
36,6.7267031999999745,859.0262834000005,none,0,1128.6992554000008,1140.0402009000009,1147.029766900001,1152.809065800002,water,geluiden,,waaien,0
36,6.7267031999999745,859.0262834000005,none,0,1152.844127800001,1155.8379760000007,1165.2306792,1171.2118652000008,wind,geluiden,,vliegtuig,0
36,6.7267031999999745,859.0262834000005,practice,1,1232.3556097000019,1233.8639067999993,1241.250984100001,1244.8476677000017,auto,geluiden,,brommer,0
36,6.7267031999999745,859.0262834000005,practice,1,1244.8913588000014,1252.7967965000007,1263.1558993000017,1268.5343822000013,dansen,geluiden,,zingen,0
36,6.7267031999999745,859.0262834000005,none,1,1273.8535331000003,1276.728410900001,1285.538284700002,1290.5126431000008,kind,geluiden,,baby,0
36,6.7267031999999745,859.0262834000005,none,1,1290.5479046000019,1294.0585101999986,1300.0892202000014,1303.3643422000005,vlieg,geluiden,,bij,0
36,6.7267031999999745,859.0262834000005,none,1,1303.3997381999998,1309.4917468000003,1316.8776927999988,1326.3929453,zwaar,geluiden,,vallen,0
36,6.7267031999999745,859.0262834000005,none,1,1326.4279952000015,1329.5556392999988,1333.0028930999997,1337.2194772999992,hoorn,geluiden,,trompet,0
36,6.7267031999999745,859.0262834000005,none,1,1337.262897300001,1341.8466363999996,1348.1725176000018,1351.9217143000005,misschien,geluiden,,bedenken,0
36,6.7267031999999745,859.0262834000005,none,1,1351.9568458000012,1354.6479812000016,1359.9026404000015,1364.3067823000001,stil,geluiden,,water,0
36,6.7267031999999745,859.0262834000005,none,1,1364.3418403999985,1366.994766400001,1372.5451833999996,1379.3677950000001,gooien,geluiden,,duwen,0
36,6.7267031999999745,1384.7534809000008,practice,0,1464.6397908000017,1471.6094811999992,1476.1607937999997,1479.1235877000017,knippen,gebaren,,knippen,0
36,6.7267031999999745,1384.7534809000008,practice,0,1479.1673729000013,1483.5497467000005,1486.5881231000003,1491.1670863000018,gek,gebaren,,raar,0
36,6.7267031999999745,1384.7534809000008,none,0,1493.1860049000006,1495.7058597000014,1499.6702959000013,1503.218853299999,dood,gebaren,,dood,1
36,6.7267031999999745,1384.7534809000008,none,0,1503.2540787999988,1507.9674851,1513.7670860999988,1526.2638867000005,hond,gebaren,,tijger,0
36,6.7267031999999745,1384.7534809000008,none,0,1526.3074485999987,1529.2898785999987,1536.306587000001,1540.0659475000011,man,gebaren,,stoer,0
36,6.7267031999999745,1384.7534809000008,none,0,1540.1013653999998,1543.1077147999986,1547.4121423999986,1551.7091421999994,zuur,gebaren,,walging,0
36,6.7267031999999745,1384.7534809000008,none,0,1551.7445195000018,1553.4343448000018,1560.669306599999,1562.860785400002,dik,gebaren,,dik,1
36,6.7267031999999745,1384.7534809000008,none,0,1562.904264499999,1566.1988810999992,1570.3262324000007,1577.9797679999992,vallen,gebaren,,omvallen,0
36,6.7267031999999745,1384.7534809000008,none,0,1578.0149021999987,1582.588162500002,1587.9611007000003,1596.0325075000019,zuigen,gebaren,,blazen,0
36,6.7267031999999745,1384.7534809000008,practice,1,1651.8170179999997,1660.6148827000015,1669.100141500001,1675.8441021999988,leeg,gebaren,,vinden,0
36,6.7267031999999745,1384.7534809000008,practice,1,1675.8877161,1678.813113000002,1684.0295118000013,1694.221832600002,haasten,gebaren,,rennen,0
36,6.7267031999999745,1384.7534809000008,none,1,1696.507248,1698.7432769999996,1705.2735215000012,1716.2167481999986,snel,gebaren,,racen,0
36,6.7267031999999745,1384.7534809000008,none,1,1716.2518489000013,1727.2428873000008,1735.7717304999987,1751.4719189000007,piepen,gebaren,,voorzichtig,0
36,6.7267031999999745,1384.7534809000008,none,1,1751.5152227999988,1755.9337103999987,1764.596271299999,1767.1990883000017,zoet,gebaren,,lekker,0
36,6.7267031999999745,1384.7534809000008,none,1,1767.2342092000017,1772.5306366999994,1781.232957099999,1784.3934610000015,ademen,gebaren,,ademen,1
36,6.7267031999999745,1384.7534809000008,none,1,1784.428533100001,1787.5517501000013,1793.0851668000014,1795.0198480000017,eten,gebaren,,eten,1
36,6.7267031999999745,1384.7534809000008,none,1,1795.0551034,1799.912845500001,1804.2437706,1807.4217606000002,springen,gebaren,,springen,1
36,6.7267031999999745,1384.7534809000008,none,1,1807.4652907,1809.8564543000011,1816.0142417000006,1819.1235251999988,likken,gebaren,,likken,1
