ID,exp_start,block_start,practice,cycle,display_start,trial_start,trial_end,RT,word,modality,correction,answer,points
38,11.246875800003181,685.7800938,practice,0,768.4588986000017,769.6118494999973,790.2823133999918,794.736396399996,dansen,combinatie,,dansen,0
38,11.246875800003181,685.7800938,practice,0,794.7880502000044,796.6070842999907,815.4374644999916,818.9732416000043,snijden,combinatie,,snijden,0
38,11.246875800003181,685.7800938,none,0,854.321583099998,860.96997559999,867.5926410999964,870.8061108999973,boos,combinatie,,woede,0
38,11.246875800003181,685.7800938,none,0,870.8489155999996,882.4988747000025,888.275503900004,896.5182201999996,vuur,combinatie,,gas,0
38,11.246875800003181,685.7800938,none,0,896.5531034000014,900.1528079999989,908.8228385999973,913.5457470999972,vlieg,combinatie,,bij,0
38,11.246875800003181,685.7800938,none,0,913.589017499995,923.5053039999912,932.4851262000011,940.0179549000022,berg,combinatie,,opstijgen,0
38,11.246875800003181,685.7800938,none,0,940.0511100000003,944.5505507999915,954.1805171000015,956.6270891000022,oud,combinatie,,oud,1
38,11.246875800003181,685.7800938,none,0,956.6700219999911,960.446090700003,971.3532472999941,978.5303472999949,slapen,combinatie,,ontspannen,0
38,11.246875800003181,685.7800938,none,0,978.5651782999921,982.1602715999907,989.121424500001,992.5157469999976,ruiken,combinatie,,ruiken,1
38,11.246875800003181,685.7800938,practice,1,1108.2340995999984,1109.6860339999985,1117.6698430999968,1125.4105779999954,gek,combinatie,,wild,0
38,11.246875800003181,685.7800938,practice,1,1125.4617322999984,1129.9455724,1136.2193110999942,1140.8959985999973,haasten,combinatie,,wachten,0
38,11.246875800003181,685.7800938,none,1,1147.1818746999925,1149.9691027999943,1154.9948716999934,1156.6985242999945,zoemen,combinatie,,vlieg,0
38,11.246875800003181,685.7800938,none,1,1156.7415466999955,1159.632151800004,1166.4789519999904,1168.4669368000032,vrouw,combinatie,,dansen,0
38,11.246875800003181,685.7800938,none,1,1168.5017527000018,1175.2540462000034,1180.0277800999902,1183.402436199991,vis,combinatie,,vis,1
38,11.246875800003181,685.7800938,none,1,1183.4456530000025,1186.504904699992,1193.1362554999941,1194.7707487000007,langzaam,combinatie,,robot,0
38,11.246875800003181,685.7800938,none,1,1194.814233099998,1198.3460448999977,1203.7378010999964,1205.9475840999949,drinken,combinatie,,drinken,1
38,11.246875800003181,685.7800938,none,1,1205.9824841999944,1210.0843760999996,1214.1143747000024,1218.4243484000035,grommen,combinatie,,boos,0
38,11.246875800003181,685.7800938,none,1,1218.4590516000026,1223.6137863999902,1229.0999709000025,1232.6598271999974,jagen,combinatie,,schieten,0
38,11.246875800003181,1237.3373561999906,practice,0,1289.2443927999993,1292.244243299996,1297.2625146999926,1300.161555300001,olifant,geluiden,,olifant,0
38,11.246875800003181,1237.3373561999906,practice,0,1300.2047654999915,1302.4789347999904,1310.1404210000037,1315.613838499994,comfortabel,geluiden,,wachten,0
38,11.246875800003181,1237.3373561999906,none,0,1321.8083183999988,1324.93510599999,1331.3491695999983,1337.4754129999928,groot,geluiden,,verbaasd,0
38,11.246875800003181,1237.3373561999906,none,0,1337.5102689999912,1340.2452484999958,1345.6447163999983,1383.7489830999984,bitter,geluiden,,walgen,0
38,11.246875800003181,1237.3373561999906,none,0,1383.7921814000001,1387.66899559999,1393.9009965000005,1397.0263664999948,scherp,geluiden,,slijpen,0
38,11.246875800003181,1237.3373561999906,none,0,1397.0607729999901,1403.8070348000037,1411.3386753999948,1413.5794932999997,slang,geluiden,,slissen,0
38,11.246875800003181,1237.3373561999906,none,0,1413.621536599996,1416.4406156999903,1420.9135737000033,1425.3302278999909,bijten,geluiden,,happen,0
38,11.246875800003181,1237.3373561999906,none,0,1425.3650775999995,1428.1614580000023,1433.2292102999927,1443.5001362999901,geven,geluiden,,neurieen,0
38,11.246875800003181,1237.3373561999906,none,0,1443.5424945999985,1447.5866891999904,1453.0607217999932,1456.1099894999934,zuigen,geluiden,,smakken,0
38,11.246875800003181,1237.3373561999906,practice,1,1496.8176470000035,1506.3198677000037,1511.9779101000022,1513.7015329999995,bloem,geluiden,,blazen,0
38,11.246875800003181,1237.3373561999906,practice,1,1513.744558499995,1516.8748290999938,1524.04180549999,1525.3373053999967,auto,geluiden,,motor,0
38,11.246875800003181,1237.3373561999906,none,1,1530.2471270999959,1532.4638025000022,1537.117003499996,1539.8808183999936,kat,geluiden,,kat,1
38,11.246875800003181,1237.3373561999906,none,1,1539.9152468999964,1541.535594999994,1549.9781839999923,1554.332667499999,staart,geluiden,,wind,0
38,11.246875800003181,1237.3373561999906,none,1,1554.3675629999925,1557.0738793999917,1562.2955529000028,1563.800779199999,eten,geluiden,,slikken,0
38,11.246875800003181,1237.3373561999906,none,1,1563.8438585999975,1573.216642200001,1578.6669759999932,1583.0207451000024,vechten,geluiden,,botsing,0
38,11.246875800003181,1237.3373561999906,none,1,1583.0636174999963,1585.958727899997,1593.854440199997,1597.1641168999922,vliegen,geluiden,,surfen,0
38,11.246875800003181,1237.3373561999906,none,1,1597.2076997999975,1600.3689005999913,1607.5818243999965,1610.899484900001,fluisteren,geluiden,,fluisteren,1
38,11.246875800003181,1237.3373561999906,none,1,1610.9338756999932,1614.949102700004,1622.1146471999964,1627.160041199997,wind,geluiden,,storm,0
38,11.246875800003181,1629.5538005999988,practice,0,1675.819229899993,1679.209049099998,1685.4018092999904,1689.2109609000036,leeg,gebaren,,verbazing,0
38,11.246875800003181,1629.5538005999988,practice,0,1689.2541763999907,1691.3643141999928,1697.3957389999996,1699.545915099996,knippen,gebaren,,knippen,0
38,11.246875800003181,1629.5538005999988,none,0,1702.4312419999915,1706.2587653999944,1710.364832399995,1719.623733799992,ik,gebaren,,persoon,0
38,11.246875800003181,1629.5538005999988,none,0,1719.66739029999,1722.3088244999963,1729.1872167999973,1735.0262596999964,snel,gebaren,,afslaan,0
38,11.246875800003181,1629.5538005999988,none,0,1735.0610787000041,1737.056246299995,1744.347020599991,1746.3456232000026,bliksem,gebaren,,vallen,0
38,11.246875800003181,1629.5538005999988,none,0,1746.3793552999996,1749.3405488999997,1754.285972800004,1760.304948799996,man,gebaren,,onverschillig,0
38,11.246875800003181,1629.5538005999988,none,0,1760.3397162000037,1762.6151731999998,1767.439891300004,1769.097934599995,regen,gebaren,,regen,1
38,11.246875800003181,1629.5538005999988,none,0,1769.141043399999,1772.3702347999933,1778.8092731999932,1783.6263180999958,verbranden,gebaren,,schrikken,0
38,11.246875800003181,1629.5538005999988,none,0,1783.6595862999966,1788.600667599996,1793.8616526999976,1796.9024334999995,rennen,gebaren,,rennen,1
38,11.246875800003181,1629.5538005999988,practice,1,1836.5593455999915,1839.4916290999972,1850.6478825999948,1852.3517980000033,koken,gebaren,,koken,0
38,11.246875800003181,1629.5538005999988,practice,1,1852.395164799993,1856.3249867999984,1864.3285127999989,1865.7457042000024,rijk,gebaren,,rijk,0
38,11.246875800003181,1629.5538005999988,none,1,1870.239602200003,1875.331894499992,1880.5216106000007,1882.2398373000033,vogel,gebaren,,vliegen,0
38,11.246875800003181,1629.5538005999988,none,1,1882.2743044999952,1885.1128311999928,1890.5889212000038,1899.0255591000023,dood,gebaren,,knockout,0
38,11.246875800003181,1629.5538005999988,none,1,1899.068655199997,1901.7601503000042,1906.963189599992,1908.218622100001,walgen,gebaren,,braken,0
38,11.246875800003181,1629.5538005999988,none,1,1908.2613457999978,1910.2549430999934,1916.4080404999986,1923.3304033000022,misschien,gebaren,,onwetend,0
38,11.246875800003181,1629.5538005999988,none,1,1923.364100699997,1926.37615679999,1931.6380315999995,1938.6065718000027,niet,gebaren,,nee,0
38,11.246875800003181,1629.5538005999988,none,1,1938.6412925999903,1942.0789202000014,1951.5187466999923,1959.0512562999938,vangen,gebaren,,basketbal,0
38,11.246875800003181,1629.5538005999988,none,1,1959.0863008000015,1962.6774311999907,1971.523980500002,1973.2285112999962,kruipen,gebaren,,tijgeren,0
