ID,exp_start,block_start,practice,cycle,display_start,trial_start,trial_end,RT,word,modality,correction,answer,points
43,136.27295530000083,184.5784418000003,practice,0,282.84331419999944,289.19396300000153,294.1614097999991,303.11096739999994,bloem,combinatie,,genieten,0
43,136.27295530000083,184.5784418000003,practice,0,303.1623835999999,307.33837739999944,314.7570145999998,316.721559900001,olifant,combinatie,,olifant,0
43,136.27295530000083,184.5784418000003,none,0,427.1968588000018,431.93790140000056,436.1051401000004,442.6483741000011,boos,combinatie,,boos,1
43,136.27295530000083,184.5784418000003,none,0,442.68339209999976,446.65329610000117,451.27765870000076,452.36639099999957,zoemen,combinatie,,mug,0
43,136.27295530000083,184.5784418000003,none,0,452.40157340000223,464.5460975999995,471.48644240000067,475.8700166000017,kind,combinatie,,spelen,0
43,136.27295530000083,184.5784418000003,none,0,475.90492970000196,480.0879496000016,483.8964244000017,484.8878637000016,dood,combinatie,,dood,1
43,136.27295530000083,184.5784418000003,none,0,484.93138180000096,490.1777027999997,493.51355010000043,494.6559860000016,hond,combinatie,,hond,1
43,136.27295530000083,184.5784418000003,none,0,494.6906701000007,504.64697610000076,508.1432642,511.36683149999953,ziek,combinatie,,opgelucht,0
43,136.27295530000083,184.5784418000003,none,0,511.40181680000023,518.1406435999997,522.8442209999994,529.127887900002,dik,combinatie,,dik,1
43,136.27295530000083,184.5784418000003,practice,1,669.5085927,672.8257823999993,680.7682186999991,685.9678286999988,comfortabel,combinatie,,moe,0
43,136.27295530000083,184.5784418000003,practice,1,686.0194682000001,690.6329605999999,696.2284949000023,699.6625359999998,gek,combinatie,,feesten,0
43,136.27295530000083,184.5784418000003,none,1,702.9469768000017,706.1759951999993,710.5901440000016,712.9134900999998,kat,combinatie,,kat,1
43,136.27295530000083,184.5784418000003,none,1,712.9480970000004,715.9591875000006,721.1249171000018,723.9317308999998,vuur,combinatie,,wind,0
43,136.27295530000083,184.5784418000003,none,1,723.9664101000017,729.4448143000009,734.6082223000012,738.0921882000002,niet,combinatie,,weigeren,0
43,136.27295530000083,184.5784418000003,none,1,738.1271192999993,742.6002001000015,749.422376999999,752.1775954000004,zout,combinatie,,vis,0
43,136.27295530000083,184.5784418000003,none,1,752.2130036999988,755.4052828000022,759.5333957000003,762.2289726000017,vallen,combinatie,,vallen,1
43,136.27295530000083,184.5784418000003,none,1,762.2641253000002,764.4213388999997,768.1160471000003,771.8302748000024,vechten,combinatie,,boksen,0
43,136.27295530000083,184.5784418000003,none,1,771.8740682999996,774.8187204999995,778.7046437999998,780.8734635000001,weten,combinatie,,idee,0
43,136.27295530000083,784.8087053999989,practice,0,863.5040000000008,869.2666202,873.9368568999998,875.4711078,rijk,gebaren,,geld,0
43,136.27295530000083,784.8087053999989,practice,0,875.5141132999997,880.9334664000016,885.1789152000019,886.3556633000007,auto,gebaren,,rijden,0
43,136.27295530000083,784.8087053999989,none,0,888.890591899999,891.6505821999999,895.4619803000023,896.8740786000017,vogel,gebaren,,vliegen,0
43,136.27295530000083,784.8087053999989,none,0,896.9169380999992,901.6329820999999,905.9480069000019,909.7008222000004,hoorn,gebaren,,duiven,0
43,136.27295530000083,784.8087053999989,none,0,909.7442831000008,912.7004758000003,916.6756831000021,918.4856866000009,bang,gebaren,,schrikken,0
43,136.27295530000083,784.8087053999989,none,0,918.5285481999999,924.604432600001,929.0531737999991,930.178910300001,zuur,gebaren,,zuur,1
43,136.27295530000083,784.8087053999989,none,0,930.2219033000001,934.0113502000022,938.105847400002,941.3650325000017,bijten,gebaren,,happen,0
43,136.27295530000083,784.8087053999989,none,0,941.4064182000002,947.5817625999989,953.8460321999992,956.1826046999995,ademen,gebaren,,ademen,1
43,136.27295530000083,784.8087053999989,none,0,956.2173161999999,959.3209559999996,962.6732631000013,964.0843932999996,geven,gebaren,,geven,1
43,136.27295530000083,784.8087053999989,practice,1,1046.5727522000016,1051.611430500001,1056.634616700001,1061.2734292999994,leeg,gebaren,,omgooien,0
43,136.27295530000083,784.8087053999989,practice,1,1061.3167371000018,1064.2032163000003,1068.9900890999998,1071.9582943000023,haasten,gebaren,,rennen,0
43,136.27295530000083,784.8087053999989,none,1,1075.443727599999,1079.2290027000017,1083.924954500002,1086.7690642000016,snel,gebaren,,rennen,0
43,136.27295530000083,784.8087053999989,none,1,1086.8120393999998,1092.085540600001,1097.7090167999995,1101.8959775000003,vrouw,gebaren,,vrouw,1
43,136.27295530000083,784.8087053999989,none,1,1101.9390113000009,1104.9228986000016,1110.272062,1114.456162999999,zwaar,gebaren,,vallen,0
43,136.27295530000083,784.8087053999989,none,1,1114.4989739000011,1116.9010517999995,1123.1953361000014,1126.2496093000009,bliksem,gebaren,,regen,0
43,136.27295530000083,784.8087053999989,none,1,1126.2928481000017,1130.3410164000015,1135.1966192,1138.5179418000007,man,gebaren,,man,1
43,136.27295530000083,784.8087053999989,none,1,1138.553001100001,1141.5179294000009,1145.4332529999992,1148.1946019999996,klein,gebaren,,kind,0
43,136.27295530000083,784.8087053999989,none,1,1148.2295120000017,1150.7951414999989,1154.9520163000016,1158.2049388000014,blazen,gebaren,,blazen,1
43,136.27295530000083,1161.7898023000016,practice,0,1236.4338231000002,1243.3460680999997,1248.8658252000023,1251.0762509000015,knippen,geluiden,,baby,0
43,136.27295530000083,1161.7898023000016,practice,0,1251.119362100002,1257.0932986000007,1261.1548428999995,1271.7628345000012,dansen,geluiden,,neurien,0
43,136.27295530000083,1161.7898023000016,none,0,1274.423397300001,1283.8918142000002,1288.4965704999995,1292.5491827000005,ver,geluiden,,zoemen,0
43,136.27295530000083,1161.7898023000016,none,0,1292.5922790000004,1301.2340712000005,1305.5099545000012,1320.6698548000022,luidruchtig,geluiden,,lachen,0
43,136.27295530000083,1161.7898023000016,none,0,1320.7046947000017,1330.4538756000002,1334.6389191000017,1337.8234752999997,staart,geluiden,,baby,0
43,136.27295530000083,1161.7898023000016,none,0,1337.8659702000004,1349.4862968000016,1353.6338935000022,1356.9672432000007,verbranden,geluiden,,spelen,0
43,136.27295530000083,1161.7898023000016,none,0,1357.001764200002,1367.746811000001,1372.1939177000022,1377.6118356000006,horen,geluiden,,spannend,0
43,136.27295530000083,1161.7898023000016,none,0,1377.6467107999997,1383.7995225000013,1388.265338000001,1390.6550863000011,slaan,geluiden,,vallen,0
43,136.27295530000083,1161.7898023000016,none,0,1390.690018600002,1396.5564182000016,1399.708946900002,1403.0824376000019,staan,geluiden,,verbaasd,0
43,136.27295530000083,1161.7898023000016,practice,1,1458.1999485000015,1462.367670399999,1466.8400344000001,1469.559344100002,koken,geluiden,,water,0
43,136.27295530000083,1161.7898023000016,practice,1,1469.602131399999,1471.666878600001,1475.6186175000003,1478.4356131000022,snijden,geluiden,,snijden,0
43,136.27295530000083,1161.7898023000016,none,1,1480.7784425999998,1483.2779776999996,1486.6531055000014,1489.8868408999988,koud,geluiden,,kat,0
43,136.27295530000083,1161.7898023000016,none,1,1489.9213488000023,1492.249118300002,1495.6238599999997,1498.4717698999993,goed,geluiden,,lift,0
43,136.27295530000083,1161.7898023000016,none,1,1498.5062773999998,1501.1587322000014,1505.0435350000007,1508.132063000001,heet,geluiden,,zuchten,0
43,136.27295530000083,1161.7898023000016,none,1,1508.1658895,1511.0384153000014,1515.9727687000013,1519.0077428000004,sterk,geluiden,,tijger,0
43,136.27295530000083,1161.7898023000016,none,1,1519.0514079999994,1520.9199069000024,1524.3570628000016,1526.9671239999989,lachen,geluiden,,lachen,1
43,136.27295530000083,1161.7898023000016,none,1,1527.0020757999991,1530.0115955,1534.0628569,1536.952081899999,gooien,geluiden,,vliegen,0
43,136.27295530000083,1161.7898023000016,none,1,1536.9866708000009,1539.5256343,1545.1706348000007,1547.8789032999994,lopen,geluiden,,trein,0
