ID,exp_start,block_start,practice,cycle,display_start,trial_start,trial_end,RT,word,modality,correction,answer,points
45,327.8433922999993,368.46073009999964,practice,0,404.51630119999936,412.0502054000008,415.62754060000043,424.22578070000054,klok,geluiden,0,klok,0
45,327.8433922999993,368.46073009999964,practice,0,425.96076659999926,435.0022134999999,438.2758911000001,443.2286647000001,geheim,geluiden,0,fluisteren,0
45,327.8433922999993,368.46073009999964,practice,0,447.94800120000036,457.3273038999996,460.0725077999996,479.9592862999998,geheim,geluiden,1,stilte,0
45,327.8433922999993,368.46073009999964,practice,0,485.0869769000001,490.6830807999995,494.19996340000034,541.7765660000005,geheim,geluiden,2,zwijgen,0
45,327.8433922999993,368.46073009999964,none,0,550.5631783000008,563.3157207000004,565.8851623999999,577.4988658000002,zuur,geluiden,0,bang,0
45,327.8433922999993,368.46073009999964,none,0,581.593288600001,589.6078080999996,591.8434744999995,598.4268852000005,zuur,geluiden,1,vies,0
45,327.8433922999993,368.46073009999964,none,0,602.4963578999996,609.8759262999993,612.7384314999999,624.9058444000002,zuur,geluiden,2,disgust,0
45,327.8433922999993,368.46073009999964,none,0,633.8007744000006,662.0914169000007,695.3557161999997,735.0891231999994,verbranden,geluiden,0,alarm,0
45,327.8433922999993,368.46073009999964,none,0,739.3084734999993,757.7877587999992,761.4928031,770.4111912999997,verbranden,geluiden,1,fluisteren,0
45,327.8433922999993,368.46073009999964,none,0,774.2550744,782.0852028999998,784.7056403999995,789.9056132999995,verbranden,geluiden,2,wekker,0
45,327.8433922999993,368.46073009999964,none,0,797.0837252000001,800.1869368000007,802.6414287999996,806.8083349000008,huilen,geluiden,0,bang,0
45,327.8433922999993,368.46073009999964,none,0,809.6437755999996,812.065604200001,814.6365841999996,817.9015916999997,huilen,geluiden,1,huilen,1
45,327.8433922999993,368.46073009999964,none,0,819.4866514999994,825.6407853000001,829.5169014000003,833.9047852000003,drinken,geluiden,0,drinken,2
45,327.8433922999993,368.46073009999964,none,0,835.3808110000009,837.7244709999995,840.1155598999994,844.6889972000008,eten,geluiden,0,smakken,0
45,327.8433922999993,368.46073009999964,none,0,847.7584747000001,850.1713271000008,852.7421971999993,855.9909115999999,eten,geluiden,1,kauwen,0
45,327.8433922999993,368.46073009999964,none,0,859.2268913999997,863.8357233999996,866.6959576999998,876.3274615999999,eten,geluiden,2,eten,0.5
45,327.8433922999993,368.46073009999964,none,0,877.5534012999997,883.5627643000007,885.8742098000002,900.6640148999995,weten,geluiden,0,ingeving,0
45,327.8433922999993,368.46073009999964,none,0,904.4329321000005,910.2740302000002,912.6073202000007,944.2706849999995,weten,geluiden,1,overeenstemming,0
45,327.8433922999993,368.46073009999964,none,0,949.6316686000009,954.7006278000008,958.0111797000009,1010.1559902999998,weten,geluiden,2,akkoord,0
45,327.8433922999993,368.46073009999964,none,0,1014.8747741999996,1023.0854092000009,1027.1368425,1036.2091571,zwemmen,geluiden,0,zwemmen,2
45,327.8433922999993,368.46073009999964,practice,1,1080.3429008000003,1083.7597767000007,1087.3705859000002,1089.0422577000008,juichen,geluiden,0,winnen,0
45,327.8433922999993,368.46073009999964,practice,1,1092.4279301000006,1098.7172150999995,1102.1222803,1104.7614981999996,juichen,geluiden,1,juichen,0
45,327.8433922999993,368.46073009999964,practice,1,1106.2383671999996,1109.5856718000014,1114.621415399999,1116.0797220000004,bal,geluiden,0,vallen,0
45,327.8433922999993,368.46073009999964,practice,1,1119.5909104000002,1121.2241482000009,1128.4112372,1131.6583315000007,bal,geluiden,1,ontploffing,0
45,327.8433922999993,368.46073009999964,practice,1,1135.3346860000001,1141.8872968999985,1148.3599964000005,1149.7097928999992,bal,geluiden,2,springen,0
45,327.8433922999993,368.46073009999964,none,1,1157.3212852999986,1168.2333779000019,1186.1023046999999,1189.4992282000003,hoorn,geluiden,0,wolf,0
45,327.8433922999993,368.46073009999964,none,1,1193.1266285000002,1207.8797496999996,1214.7873464999993,1217.3031542000008,hoorn,geluiden,1,,0
45,327.8433922999993,368.46073009999964,none,1,1223.564585099999,1226.405536100001,1231.9598860999995,1236.0395254000014,hoorn,geluiden,2,explosie,0
45,327.8433922999993,368.46073009999964,none,1,1241.1672673999983,1252.4586337000019,1258.2124746999998,1267.3441284000019,man,geluiden,0,grommen,0
45,327.8433922999993,368.46073009999964,none,1,1270.9222567000015,1280.640801399999,1285.7196905,1288.2806007999989,man,geluiden,1,holbewoner,0
45,327.8433922999993,368.46073009999964,none,1,1292.2920528999985,1305.6232557999992,1312.8664894999984,1316.3015469000002,man,geluiden,2,dier,0
45,327.8433922999993,368.46073009999964,none,1,1322.4541496000002,1325.8146078000009,1328.7233794000003,1333.8291479000018,niet,geluiden,0,ontkrachten,0
45,327.8433922999993,368.46073009999964,none,1,1337.340315899999,1339.6012371000015,1343.5535308999988,1345.3560063999994,niet,geluiden,1,ontkennen,0
45,327.8433922999993,368.46073009999964,none,1,1349.0169759,1350.3655052000013,1360.5758045999992,1362.3000893000008,niet,geluiden,2,nee,0
45,327.8433922999993,368.46073009999964,none,1,1366.7362335000016,1372.223224700001,1378.1786292999986,1379.010802499999,regen,geluiden,0,vis,0
45,327.8433922999993,368.46073009999964,none,1,1382.2473960000007,1393.0050535999999,1405.7480268000018,1407.9660224999989,regen,geluiden,1,fluisteren,0
45,327.8433922999993,368.46073009999964,none,1,1411.2928983000002,1419.6802255999992,1423.3789536999993,1425.2929123000013,regen,geluiden,2,bom,0
45,327.8433922999993,368.46073009999964,none,1,1432.0293715999996,1438.3680870000007,1442.7481031000007,1445.1709331000002,verdrietig,geluiden,0,zielig,0
45,327.8433922999993,368.46073009999964,none,1,1448.1318550000015,1450.0158452000014,1454.468309400001,1459.9814776000003,verdrietig,geluiden,1,verdrietig,1
45,327.8433922999993,368.46073009999964,none,1,1461.6502208000002,1471.9932328999985,1479.8346284999989,1481.4012567000009,vliegen,geluiden,0,snijden,0
45,327.8433922999993,368.46073009999964,none,1,1484.8956806000006,1487.5773291999994,1493.3392052,1494.6870561000014,vliegen,geluiden,1,wind,0
45,327.8433922999993,368.46073009999964,none,1,1499.4134595999985,1504.703286599999,1510.1798514999991,1512.0725379000014,vliegen,geluiden,2,vliegen,0.5
45,327.8433922999993,368.46073009999964,none,1,1513.8415747999989,1517.0079050000004,1522.7401639,1523.774329400001,slapen,geluiden,0,moe,0
45,327.8433922999993,368.46073009999964,none,1,1526.9602340000001,1528.3394802999992,1535.0316337999993,1536.3845071999986,slapen,geluiden,1,slapen,1
45,327.8433922999993,1581.2851666000006,practice,0,1596.9207528999996,1599.3695568999992,1602.2922688999988,1605.3783067999993,glimlach,gebaren,0,blij,0
45,327.8433922999993,1581.2851666000006,practice,0,1608.7222214999983,1611.0403830000014,1614.3298363000013,1618.6389206000003,glimlach,gebaren,1,glimlachen,0
45,327.8433922999993,1581.2851666000006,practice,0,1623.2995113000015,1626.7174152999996,1630.3944820999986,1639.8001477999987,glimlach,gebaren,2,vrolijk,0
45,327.8433922999993,1581.2851666000006,practice,0,1643.6440488999997,1649.9790717000014,1653.0099864999993,1665.0289921999993,sneeuw,gebaren,0,sneeuw,0
45,327.8433922999993,1581.2851666000006,none,0,1668.6479827999992,1675.8251771999985,1679.1764669999993,1698.1505573000013,zoemen,gebaren,0,dansen,0
45,327.8433922999993,1581.2851666000006,none,0,1701.7450955000004,1706.2894748000017,1710.5050083000006,1728.5549005999983,zoemen,gebaren,1,swingen,0
45,327.8433922999993,1581.2851666000006,none,0,1731.3994120000007,1736.6879031000008,1741.5130125000014,1769.519661100001,zoemen,gebaren,2,feesten,0
45,327.8433922999993,1581.2851666000006,none,0,1774.9888598999987,1778.5146154999984,1782.8574448000018,1795.2567294000019,bliksem,gebaren,0,gooien,0
45,327.8433922999993,1581.2851666000006,none,0,1797.7511313999985,1800.0177967,1803.8150546000015,1808.7184136999986,bliksem,gebaren,1,onweer,0
45,327.8433922999993,1581.2851666000006,none,0,1812.0443355000007,1813.3298187000019,1817.2221544000004,1839.4389054000003,bliksem,gebaren,2,elektrisiteit,0
45,327.8433922999993,1581.2851666000006,none,0,1845.1666596000014,1851.4951974000014,1854.6969421999984,1858.5412994999988,scherp,gebaren,0,snee,0
45,327.8433922999993,1581.2851666000006,none,0,1861.6520011999983,1862.5069000999993,1865.910462599999,1874.9938009999987,scherp,gebaren,1,snijden,0
45,327.8433922999993,1581.2851666000006,none,0,1877.7806088000016,1880.093045399999,1882.8896373000007,1902.6896534999996,scherp,gebaren,2,verwonden,0
45,327.8433922999993,1581.2851666000006,none,0,1906.9922088000003,1911.4024317999992,1913.7163189000003,1917.9251660999998,bijten,gebaren,0,bijten,2
45,327.8433922999993,1581.2851666000006,none,0,1919.4527528000017,1921.4256817000005,1924.5278787000007,1927.4266334000004,blazen,gebaren,0,blazen,2
45,327.8433922999993,1581.2851666000006,none,0,1928.578994900001,1930.9827399000005,1933.6540957999987,1940.4122632999988,springen,gebaren,0,springen,2
45,327.8433922999993,1581.2851666000006,none,0,1941.8138411000018,1944.1501515,1946.785967599999,1950.3217873999984,likken,gebaren,0,likken,2
45,327.8433922999993,1581.2851666000006,practice,1,1982.7452533999985,1984.9923034000003,1992.3092053000018,1994.111736500001,fiets,gebaren,0,fietsen,0
45,327.8433922999993,1581.2851666000006,practice,1,1997.5058687,2001.1390708000017,2004.7650712999985,2008.547300600001,fiets,gebaren,1,wielrennen,0
45,327.8433922999993,1581.2851666000006,practice,1,2011.2080224000001,2013.0386672000004,2018.7787018,2021.6825345000016,fiets,gebaren,2,motor,0
45,327.8433922999993,1581.2851666000006,practice,1,2025.9687987999987,2028.2458070000012,2031.2971543000003,2034.0759319000008,zwaaien,gebaren,0,zwaaien,0
45,327.8433922999993,1581.2851666000006,none,1,2037.5368636000003,2040.6128058999984,2044.1632222999997,2045.3283495999985,walgen,gebaren,0,ziek,0
45,327.8433922999993,1581.2851666000006,none,1,2047.9971693999996,2050.7023635999994,2053.0813407000005,2055.0460163000007,walgen,gebaren,1,vies,0
45,327.8433922999993,1581.2851666000006,none,1,2057.7156477000008,2060.609379200001,2065.1688156,2066.339227999999,walgen,gebaren,2,stinken,0
45,327.8433922999993,1581.2851666000006,none,1,2070.424956699999,2091.0555153000005,2096.2217851000005,2097.0938246999995,hond,gebaren,0,hond,2
45,327.8433922999993,1581.2851666000006,none,1,2098.3541733,2102.3982785999997,2106.9442714999986,2109.0622969999986,vrouw,gebaren,0,model,0
45,327.8433922999993,1581.2851666000006,none,1,2111.8812003000003,2113.0375490999995,2118.0271765000016,2125.9563247999995,vrouw,gebaren,1,strand,0
45,327.8433922999993,1581.2851666000006,none,1,2128.5593027000014,2129.9356768999987,2136.537457299999,2151.7269785000008,vrouw,gebaren,2,ik,0
45,327.8433922999993,1581.2851666000006,none,1,2154.5804469999985,2158.3939063000016,2161.0566444999986,2162.178672,bang,gebaren,0,bang,2
45,327.8433922999993,1581.2851666000006,none,1,2163.3390181999985,2166.083220499999,2171.8297844999997,2173.3386078999993,langzaam,gebaren,0,lopen,0
45,327.8433922999993,1581.2851666000006,none,1,2175.7658791999984,2179.004487100001,2183.684097200001,2185.215708400001,langzaam,gebaren,1,bejaarde,0
45,327.8433922999993,1581.2851666000006,none,1,2188.0429879999992,2202.0306511,2208.7141826999996,2210.5357948,langzaam,gebaren,2,langzaam,0.5
45,327.8433922999993,1581.2851666000006,none,1,2211.7547737000004,2215.6197849,2220.2637127,2221.8708886000004,onweer,gebaren,0,bliksem,0
45,327.8433922999993,1581.2851666000006,none,1,2224.598568200001,2227.609224900001,2231.8766932000017,2233.0808952999996,onweer,gebaren,1,onweer,1
45,327.8433922999993,1581.2851666000006,none,1,2234.5326769000003,2241.3112138999986,2248.5624824999995,2257.4512999000017,kruipen,gebaren,0,robot,0
45,327.8433922999993,1581.2851666000006,none,1,2260.070464999999,2261.7027327000014,2268.8016953999995,2270.244642399999,kruipen,gebaren,1,kruipen,1
45,327.8433922999993,2302.9687512,practice,0,2310.1612243,2313.537218399999,2316.2400780000007,2319.410602099999,eend,combinatie,0,eend,0
45,327.8433922999993,2302.9687512,practice,0,2320.6959668,2322.662209799999,2325.3458622999988,2327.9451541,zingen,combinatie,0,zingen,0
45,327.8433922999993,2302.9687512,none,0,2331.2388544000005,2333.4883264,2337.000575799999,2340.0969451,ik,combinatie,0,vrouw,0
45,327.8433922999993,2302.9687512,none,0,2343.2746059,2350.6046246999995,2353.1099760000016,2361.3668296999986,ik,combinatie,1,jezelf,0
45,327.8433922999993,2302.9687512,none,0,2364.3286179000006,2366.0003177000017,2368.4929955999996,2377.1441151000017,ik,combinatie,2,juichen,0
45,327.8433922999993,2302.9687512,none,0,2381.038680200001,2395.8756129999983,2399.222194600001,2405.1987986000004,ei,combinatie,0,eend,0
45,327.8433922999993,2302.9687512,none,0,2408.1344474000016,2409.026671900001,2416.0950694000003,2419.5183903999987,ei,combinatie,1,hart,0
45,327.8433922999993,2302.9687512,none,0,2422.778085,2425.1073897000006,2431.0954788,2448.2383376000016,ei,combinatie,2,snavel,0
45,327.8433922999993,2302.9687512,none,0,2453.6911872,2457.237650000001,2460.135428399999,2465.4493053999995,blij,combinatie,0,vrolijk,0
45,327.8433922999993,2302.9687512,none,0,2468.351515299999,2470.070860400001,2472.8131300000005,2479.318350200001,blij,combinatie,1,blij,1
45,327.8433922999993,2302.9687512,none,0,2480.478319,2483.5236244999996,2486.639943700002,2491.8446466000005,zwaar,combinatie,0,ontspannen,0
45,327.8433922999993,2302.9687512,none,0,2494.8225445000007,2495.735433,2500.937299200001,2503.5715188000013,zwaar,combinatie,1,zwaar,1
45,327.8433922999993,2302.9687512,none,0,2504.640505199999,2506.4749882000015,2508.9567243,2516.8652085999984,stil,combinatie,0,fluisteren,0
45,327.8433922999993,2302.9687512,none,0,2519.559460300001,2520.2034226999986,2523.3911181999993,2528.018152499999,stil,combinatie,1,stilte,0
45,327.8433922999993,2302.9687512,none,0,2531.9279091000008,2533.3633738000008,2536.3790519000013,2581.1665196999984,stil,combinatie,2,stil,0.5
45,327.8433922999993,2302.9687512,none,0,2582.5682617,2585.3902002999985,2589.2518723999983,2592.2598941999986,slang,combinatie,0,slang,2
45,327.8433922999993,2302.9687512,none,0,2593.436780599999,2601.6317672999994,2605.274440899999,2608.562671900001,staan,combinatie,0,lopen,0
45,327.8433922999993,2302.9687512,none,0,2611.089978400001,2613.428071799999,2616.401531900001,2627.382034,staan,combinatie,1,hakken,0
45,327.8433922999993,2302.9687512,none,0,2630.1921507999996,2637.7393445,2641.0882828000013,2679.1480365000007,staan,combinatie,2,overeenstemming,0
45,327.8433922999993,2302.9687512,practice,1,2714.4881435000007,2716.3418182000005,2721.4711536000013,2722.5627547999993,telefoon,combinatie,0,bellen,0
45,327.8433922999993,2302.9687512,practice,1,2725.5484836000014,2727.040195399999,2731.0976843000008,2735.0812884999996,telefoon,combinatie,1,telefoon,0
45,327.8433922999993,2302.9687512,practice,1,2736.391335999999,2741.8581920999986,2747.8996035,2749.2335263000004,vliegtuig,combinatie,0,vliegen,0
45,327.8433922999993,2302.9687512,practice,1,2751.8192856000005,2754.2991061999983,2760.4850159,2762.0606470000002,vliegtuig,combinatie,1,vliegtuig,0
45,327.8433922999993,2302.9687512,none,1,2765.1293892999984,2768.407217400001,2771.652634100001,2772.5870049999994,kat,combinatie,0,kat,2
45,327.8433922999993,2302.9687512,none,1,2773.322005,2775.4528635000006,2780.736583,2781.5384237000017,vis,combinatie,0,vis,2
45,327.8433922999993,2302.9687512,none,1,2782.3318831000015,2785.1641325,2789.0539418999997,2790.1644722,misschien,combinatie,0,denken,0
45,327.8433922999993,2302.9687512,none,1,2792.65877,2794.3237895,2798.4406163000003,2800.4578137000008,misschien,combinatie,1,twijfelen,0
45,327.8433922999993,2302.9687512,none,1,2803.3853555000005,2805.8008013000017,2809.0203920000004,2814.5184479,misschien,combinatie,2,overwegen,0
45,327.8433922999993,2302.9687512,none,1,2818.2293268999983,2820.7789850999998,2825.6906645,2827.412119300001,staart,combinatie,0,staart,2
45,327.8433922999993,2302.9687512,none,1,2828.221533400001,2830.9984023000015,2835.1376207999983,2836.2383305999992,grommen,combinatie,0,beer,0
45,327.8433922999993,2302.9687512,none,1,2838.8820187,2841.3495998000017,2844.471555599999,2845.6812649000003,grommen,combinatie,1,wolf,0
45,327.8433922999993,2302.9687512,none,1,2848.5504401000017,2852.3445844,2857.3319132000015,2858.833156300001,grommen,combinatie,2,grommen,0.5
45,327.8433922999993,2302.9687512,none,1,2859.6433471,2862.5583725999986,2867.067138799999,2869.385253999999,jagen,combinatie,0,boogschieten,0
45,327.8433922999993,2302.9687512,none,1,2871.7955304000006,2875.618515700002,2880.1248775000004,2882.036730400001,jagen,combinatie,1,jagen,1
45,327.8433922999993,2302.9687512,none,1,2882.8721330999997,2885.8321583000015,2890.791487100001,2892.5888201,water,combinatie,0,zee,0
45,327.8433922999993,2302.9687512,none,1,2896.2240911999997,2903.244362899999,2910.30034,2911.5412266000003,water,combinatie,1,water,1
