ID,exp_start,block_start,practice,cycle,display_start,trial_start,trial_end,RT,word,modality,correction,answer,points
4,113.92957810000007,832.5178206,practice,0,940.0254484000002,944.7258268,951.6194121000003,956.0261888,auto,combinatie,,auto,0
4,113.92957810000007,832.5178206,practice,0,956.0778981000003,971.7883780000002,983.1105048,986.4890728999999,bloem,combinatie,,paal,0
4,113.92957810000007,832.5178206,none,0,997.8339702000003,1000.7469673999999,1006.2720130000002,1008.9676833000003,kat,combinatie,,kat,1
4,113.92957810000007,832.5178206,none,0,1009.0022259000002,1011.2807622,1018.0011248999999,1020.5609921,vuur,combinatie,,vuur,1
4,113.92957810000007,832.5178206,none,0,1020.6038956000002,1023.4107772000002,1030.1803909,1032.7376206,zwaar,combinatie,,zwaar,1
4,113.92957810000007,832.5178206,none,0,1032.7724189,1035.3401188000003,1039.2755929,1043.2641813,man,combinatie,,sterk,0
4,113.92957810000007,832.5178206,none,0,1043.3070715,1046.5290524000002,1053.5523430000003,1056.9335039000002,piepen,combinatie,,parkeren,0
4,113.92957810000007,832.5178206,none,0,1056.9676686000003,1059.3836539999998,1065.5693739000003,1070.2430693000001,onweer,combinatie,,explosie,0
4,113.92957810000007,832.5178206,none,0,1070.2859008,1072.3638366999999,1076.3387211000004,1079.4696022000003,zuigen,combinatie,,spannend,0
4,113.92957810000007,832.5178206,practice,1,1221.8255666,1233.6943333000004,1239.1228158999998,1246.0192487999998,leeg,combinatie,,weg,0
4,113.92957810000007,832.5178206,practice,1,1246.0707574000003,1249.0235900000002,1252.3674155000003,1254.4287961000005,snijden,combinatie,,snijden,0
4,113.92957810000007,832.5178206,none,1,1275.8587345,1279.6749503000005,1283.4514618999997,1286.1751378000004,ver,combinatie,,zoeken,0
4,113.92957810000007,832.5178206,none,1,1286.2101036999998,1290.5331486,1293.3367181999997,1295.7262968999999,goed,combinatie,,goed,1
4,113.92957810000007,832.5178206,none,1,1295.7697663000004,1300.0962855000002,1303.4413625000002,1306.0030152000004,ademen,combinatie,,ademen,1
4,113.92957810000007,832.5178206,none,1,1306.0465453000002,1310.3861515000003,1313.7837449000003,1316.5713363,kruipen,combinatie,,kruipen,1
4,113.92957810000007,832.5178206,none,1,1316.6143574000002,1318.7130504000002,1321.9314592000005,1323.6388186999998,vechten,combinatie,,vechten,1
4,113.92957810000007,832.5178206,none,1,1323.6736555000002,1329.4313207,1332.1284798000002,1335.0574115000004,jagen,combinatie,,boogschieten,0
4,113.92957810000007,832.5178206,none,1,1335.1006891000002,1338.5622166999997,1342.3022301000005,1344.6421774000005,wind,combinatie,,wind,1
4,113.92957810000007,1347.6188969999998,practice,0,1439.5911602,1443.8311619,1450.2630248,1452.5662076000003,haasten,geluiden,,heet,0
4,113.92957810000007,1347.6188969999998,practice,0,1452.6099085,1456.9258421,1462.9412169000002,1466.6852319000004,gek,geluiden,,geluid,0
4,113.92957810000007,1347.6188969999998,none,0,1488.4403539999998,1493.5157235000001,1499.1410736000003,1506.0494178000004,bitter,geluiden,,twijfelen,0
4,113.92957810000007,1347.6188969999998,none,0,1506.0835760000004,1511.8097110000003,1517.9632750000005,1524.0104840999998,kind,geluiden,,zorgeloos,0
4,113.92957810000007,1347.6188969999998,none,0,1524.0454071999998,1528.2037770000002,1534.6546694000003,1537.8124738000001,berg,geluiden,,koud,0
4,113.92957810000007,1347.6188969999998,none,0,1537.8470379000005,1542.2264509000001,1549.2929023000002,1553.5730823,regen,geluiden,,storing,0
4,113.92957810000007,1347.6188969999998,none,0,1553.6079516000004,1555.9908514000003,1561.7666025000003,1570.2173982999998,drinken,geluiden,,stilte,0
4,113.92957810000007,1347.6188969999998,none,0,1570.2604091999997,1572.9958700000002,1577.8394144,1580.4854803000003,slapen,geluiden,,gapen,0
4,113.92957810000007,1347.6188969999998,none,0,1580.5204660000004,1585.4168847000005,1589.3727335999997,1593.5373566000003,staan,geluiden,,blazen,0
4,113.92957810000007,1347.6188969999998,practice,1,1657.9480675999998,1665.032272,1667.3777286,1670.9820892000002,dansen,geluiden,,rappen,0
4,113.92957810000007,1347.6188969999998,practice,1,1671.0252301000005,1680.1602872999997,1685.1338908000002,1688.3262527000002,koken,geluiden,,rennen,0
4,113.92957810000007,1347.6188969999998,none,1,1699.2713257,1702.3683529000004,1706.1230433000005,1708.6712603,zoemen,geluiden,,bij,0
4,113.92957810000007,1347.6188969999998,none,1,1708.7057866,1710.8707515,1713.9521553,1716.0971457,koud,geluiden,,koud,1
4,113.92957810000007,1347.6188969999998,none,1,1716.1319408000004,1724.1839581,1726.9212611999997,1729.4074954000002,hoog,geluiden,,mooi,0
4,113.92957810000007,1347.6188969999998,none,1,1729.4507988,1732.0105741000002,1735.1842597999998,1737.6753156,slang,geluiden,,slang,1
4,113.92957810000007,1347.6188969999998,none,1,1737.7186493000004,1741.0022952000004,1744.0960197,1746.2850076,zuur,geluiden,,pijn,0
4,113.92957810000007,1347.6188969999998,none,1,1746.3284061999998,1749.3011739999997,1751.9352334999999,1757.0780748000002,vangen,geluiden,,springen,0
4,113.92957810000007,1347.6188969999998,none,1,1757.1131895000003,1763.2784191000005,1765.7596897999997,1769.9135805,geven,geluiden,,knikken,0
4,113.92957810000007,1846.4681237999998,practice,0,1881.2812334000005,1883.2302206999998,1888.1925254000002,1892.1565839,knippen,gebaren,,knippen,0
4,113.92957810000007,1846.4681237999998,practice,0,1892.1999744999998,1893.8383664999997,1899.4086235,1901.3996677999999,rijk,gebaren,,rijk,0
4,113.92957810000007,1846.4681237999998,none,0,1905.0933215999999,1907.6894232,1916.7700081999997,1920.1105944000005,hond,gebaren,,aaien,0
4,113.92957810000007,1846.4681237999998,none,0,1920.1453105000005,1923.1660986000002,1926.8868085999998,1929.8371784000005,vallen,gebaren,,vallen,1
4,113.92957810000007,1846.4681237999998,none,0,1929.8807652,1932.9875529000005,1936.6020252000003,1939.4636357000004,grommen,gebaren,,eng,0
4,113.92957810000007,1846.4681237999998,none,0,1939.4984747000003,1941.5127491999997,1946.2210544000004,1949.3734209999998,horen,gebaren,,luisteren,0
4,113.92957810000007,1846.4681237999998,none,0,1949.4083219999998,1951.7352728,1955.4021687,1957.2663158,weten,gebaren,,idee,0
4,113.92957810000007,1846.4681237999998,none,0,1957.3013137000003,1959.0604691000003,1962.4840743,1967.2011804999997,lachen,gebaren,,lachen,1
4,113.92957810000007,1846.4681237999998,none,0,1967.2361224,1969.14597,1972.252989,1976.1021864999998,gooien,gebaren,,gooien,1
4,113.92957810000007,1846.4681237999998,practice,1,2034.4789351000004,2038.0256972000002,2041.4534534999998,2045.6047561,olifant,gebaren,,olifant,0
4,113.92957810000007,1846.4681237999998,practice,1,2045.6472244000001,2047.8606593999998,2050.9006356000004,2053.7054153000004,comfortabel,gebaren,,chillen,0
4,113.92957810000007,1846.4681237999998,none,1,2057.0574535,2060.6344419,2063.2997835,2064.8071867000003,boos,gebaren,,boos,1
4,113.92957810000007,1846.4681237999998,none,1,2064.8506559,2067.4446325000004,2070.5346612,2073.3752019,vogel,gebaren,,vliegen,0
4,113.92957810000007,1846.4681237999998,none,1,2073.4101941000004,2076.5309039,2079.4138772,2084.201804,walgen,gebaren,,kotsen,0
4,113.92957810000007,1846.4681237999998,none,1,2084.2366913,2091.1313738000003,2094.2398717,2097.1037385000004,vis,gebaren,,slang,0
4,113.92957810000007,1846.4681237999998,none,1,2097.1464499999997,2100.9680346,2103.3746447,2107.4134805,bliksem,gebaren,,duiken,0
4,113.92957810000007,1846.4681237999998,none,1,2107.4481591,2110.4967056,2113.8139959000005,2120.8245876000005,verbranden,gebaren,,verbranden,1
4,113.92957810000007,1846.4681237999998,none,1,2120.8668418,2124.5526416,2129.2223406,2133.5421810000003,water,gebaren,,water,1
