ID,exp_start,block_start,practice,cycle,display_start,trial_start,trial_end,RT,word,modality,correction,answer,points
50,9.954125199990813,103.79240089999803,practice,0,142.2397035000031,153.57624029999715,162.4786538999906,174.84282320000057,sneeuw,geluiden,0,schieten,0
50,9.954125199990813,103.79240089999803,practice,0,179.65402279999398,185.10372729999654,202.3811424000014,210.4980641000002,sneeuw,geluiden,1,verwarmen,0
50,9.954125199990813,103.79240089999803,practice,0,214.40087339999445,227.96234309999272,238.54067109999596,246.91336880000017,sneeuw,geluiden,2,kachel,0
50,9.954125199990813,103.79240089999803,practice,0,253.7650730000023,259.04516290000174,267.1635852000036,280.32532000000356,telefoon,geluiden,0,toeter,0
50,9.954125199990813,103.79240089999803,practice,0,284.186409499991,285.8155279999919,305.109666999997,309.3046495000017,telefoon,geluiden,1,gesprek,0
50,9.954125199990813,103.79240089999803,practice,0,315.5912793000025,338.82626159999927,366.81248219999543,370.1138210999925,telefoon,geluiden,2,bellen,0
50,9.954125199990813,103.79240089999803,none,0,376.21680670000205,379.0916925999918,382.64129119999416,386.7246618999925,boos,geluiden,0,boos,2
50,9.954125199990813,103.79240089999803,none,0,387.27625579999585,390.8104886999936,395.02290650000214,399.37663499999326,niet,geluiden,0,weigeren,0
50,9.954125199990813,103.79240089999803,none,0,403.41229159999057,420.15479040000355,435.9748810000019,439.59941969999636,niet,geluiden,1,oneens,0
50,9.954125199990813,103.79240089999803,none,0,444.68512460000056,451.98417260000133,473.9127981999918,483.55567359999986,niet,geluiden,2,ruzie,0
50,9.954125199990813,103.79240089999803,none,0,488.54200899999705,496.86418079999567,501.35949000000255,505.8591851999954,zuur,geluiden,0,vies,0
50,9.954125199990813,103.79240089999803,none,0,512.045302700004,514.946045699995,521.4680398999917,530.2878538999939,zuur,geluiden,1,heet,0
50,9.954125199990813,103.79240089999803,none,0,536.5911173999921,540.7768280000018,548.6601426999987,553.0997172999923,zuur,geluiden,2,pijn,0
50,9.954125199990813,103.79240089999803,none,0,558.8277003999974,562.9121906999935,570.8093023999973,574.1778514000034,kauwen,geluiden,0,kauwen,2
50,9.954125199990813,103.79240089999803,none,0,574.8215880999924,578.8346546999965,582.3870489999972,586.4629052999953,eten,geluiden,0,eten,2
50,9.954125199990813,103.79240089999803,none,0,587.0062734999956,589.2266874999914,591.6911940999998,594.2059362,grommen,geluiden,0,grommen,2
50,9.954125199990813,103.79240089999803,none,0,594.9659643999912,599.546686799993,606.3775915000006,609.6417222000018,zuigen,geluiden,0,smakken,0
50,9.954125199990813,103.79240089999803,none,0,612.8768733000034,614.4388869999966,625.7687535000005,638.7375782000017,zuigen,geluiden,1,slurpen,0
50,9.954125199990813,103.79240089999803,none,0,642.8815672999917,654.2220802999946,660.3444434999983,671.5089847999916,zuigen,geluiden,2,eten,0
50,9.954125199990813,103.79240089999803,practice,1,720.0016708999901,722.5252159999945,725.4763623000035,728.7260133999953,eend,geluiden,0,kwaken,0
50,9.954125199990813,103.79240089999803,practice,1,732.294948499999,735.160607999991,738.1726411999989,741.3457638999971,eend,geluiden,1,kikker,0
50,9.954125199990813,103.79240089999803,practice,1,745.1803583000001,750.3642789000005,755.2838642999995,757.2728157999954,eend,geluiden,2,eend,0
50,9.954125199990813,103.79240089999803,practice,1,757.9069996000035,760.1962493000028,763.8271540999995,768.1485506000026,juichen,geluiden,0,juichen,0
50,9.954125199990813,103.79240089999803,none,1,771.56736429999,775.0402790999942,778.8162062999909,789.7934177999996,hoorn,geluiden,0,stoomboot,0
50,9.954125199990813,103.79240089999803,none,1,794.2297566999914,801.3411871999997,806.0817489999899,837.4435988000041,hoorn,geluiden,1,aankomen,0
50,9.954125199990813,103.79240089999803,none,1,843.5783214999974,848.131670200004,853.0197693999944,856.9286654000025,hoorn,geluiden,2,toeter,0
50,9.954125199990813,103.79240089999803,none,1,863.9648355999961,872.6821656999964,878.1123127000028,881.1240891999914,klein,geluiden,0,schattig,0
50,9.954125199990813,103.79240089999803,none,1,884.9517301000014,889.8036106999934,893.7618868999998,900.6852301000035,klein,geluiden,1,lief,0
50,9.954125199990813,103.79240089999803,none,1,904.8369673999987,913.3766418000014,921.5887356000021,924.4560080999945,klein,geluiden,2,klein,0.5
50,9.954125199990813,103.79240089999803,none,1,926.3490227000002,933.3532887000038,941.4953239000024,955.2181668999983,staart,geluiden,0,zwaaien,0
50,9.954125199990813,103.79240089999803,none,1,959.3630222999927,961.7303546999901,967.0996629000001,969.5039237000019,staart,geluiden,1,aaien,0
50,9.954125199990813,103.79240089999803,none,1,973.9146423999919,979.5706563999993,987.5410111999954,995.0742821000022,staart,geluiden,2,spelen,0
50,9.954125199990813,103.79240089999803,none,1,1000.985717699994,1003.6683379000024,1008.695343799991,1011.2696638999914,bijten,geluiden,0,bijten,2
50,9.954125199990813,103.79240089999803,none,1,1011.8703640000022,1015.2160398999986,1019.0294092999975,1021.119898799996,vallen,geluiden,0,pijn,0
50,9.954125199990813,103.79240089999803,none,1,1025.839487899997,1028.7006816999929,1033.3585852999968,1036.1470807000005,vallen,geluiden,1,vallen,1
50,9.954125199990813,103.79240089999803,none,1,1036.7492263000022,1038.8175902999938,1042.1966508000041,1049.0496313999902,fluisteren,geluiden,0,fluisteren,2
50,9.954125199990813,103.79240089999803,none,1,1049.6344416999927,1056.1353757000034,1060.4864443999977,1065.2690838999988,water,geluiden,0,vissen,0
50,9.954125199990813,103.79240089999803,none,1,1069.4457698999904,1071.8488636999973,1076.6291581999976,1092.5390615999931,water,geluiden,1,drinken,0
50,9.954125199990813,103.79240089999803,none,1,1097.3163032000011,1103.367878399993,1108.9485327000002,1119.4515087999898,water,geluiden,2,slikken,0
50,9.954125199990813,1126.7460216999898,practice,0,1170.4448617000016,1175.2468354000011,1185.8152579000016,1191.0958452999912,geheim,gebaren,0,stilte,0
50,9.954125199990813,1126.7460216999898,practice,0,1195.2235753999994,1196.819954999999,1212.466453999994,1222.8670400999981,geheim,gebaren,1,sussen,0
50,9.954125199990813,1126.7460216999898,practice,0,1228.1358548999997,1229.219170700002,1257.9369034999982,1268.8156332999934,geheim,gebaren,2,klaslokaal,0
50,9.954125199990813,1126.7460216999898,practice,0,1273.6099934999947,1275.075220899991,1279.8173528999905,1285.8095498000039,glimlach,gebaren,0,lachen,0
50,9.954125199990813,1126.7460216999898,practice,0,1289.6036795999971,1290.8851510999957,1296.5772762999986,1302.2718051999982,glimlach,gebaren,1,glimlachen,0
50,9.954125199990813,1126.7460216999898,none,0,1307.5730746999907,1309.917511599997,1313.5025082999928,1317.3329890000023,dood,gebaren,0,dood,2
50,9.954125199990813,1126.7460216999898,none,0,1318.074495599998,1319.2929050999956,1327.1502671999915,1331.1167141999904,blij,gebaren,0,blij,2
50,9.954125199990813,1126.7460216999898,none,0,1332.4936224999983,1334.4856500000024,1341.538931499992,1346.0021491999942,heet,gebaren,0,verbranden,0
50,9.954125199990813,1126.7460216999898,none,0,1349.1795644999947,1351.3741759999975,1357.050499399993,1362.3544815999921,heet,gebaren,1,koud,0
50,9.954125199990813,1126.7460216999898,none,0,1365.9066777999979,1366.9725563999964,1375.858513500003,1379.5333670999971,heet,gebaren,2,heet,0.5
50,9.954125199990813,1126.7460216999898,none,0,1384.1762818999996,1391.7911091999995,1399.903136599998,1405.1615232999902,luidruchtig,gebaren,0,oorpijn,0
50,9.954125199990813,1126.7460216999898,none,0,1410.3382748000004,1411.1320867000031,1417.851948800002,1426.3643243999977,luidruchtig,gebaren,1,luid,0
50,9.954125199990813,1126.7460216999898,none,0,1431.7838765999913,1433.1503785999957,1435.4622602000018,1451.9107096999942,luidruchtig,gebaren,2,kabaal,0
50,9.954125199990813,1126.7460216999898,none,0,1457.504807899997,1463.4840739999927,1476.3547220999899,1480.764048500001,ziek,gebaren,0,buikpijn,0
50,9.954125199990813,1126.7460216999898,none,0,1483.374916899993,1487.6263852999982,1500.5692643999937,1503.5590171999938,ziek,gebaren,1,koorts,0
50,9.954125199990813,1126.7460216999898,none,0,1509.1619185000018,1511.1954173999984,1522.2501094000036,1526.7388543999987,ziek,gebaren,2,ziek,0.5
50,9.954125199990813,1126.7460216999898,none,0,1527.6980905999953,1530.2816033999989,1534.8927874999936,1539.2479534000013,stil,gebaren,0,verbaast,0
50,9.954125199990813,1126.7460216999898,none,0,1542.9506426000007,1543.7114383000007,1548.3762251000007,1552.3497416000027,stil,gebaren,1,nadenken,0
50,9.954125199990813,1126.7460216999898,none,0,1556.5271455000038,1558.5134622999904,1566.4782073999959,1573.9196259000018,stil,gebaren,2,ongeloof,0
50,9.954125199990813,1126.7460216999898,none,0,1578.330966900001,1584.136262,1604.7237287000025,1608.3998415999959,piepen,gebaren,0,aaien,0
50,9.954125199990813,1126.7460216999898,none,0,1612.6524946999998,1620.3705868999969,1630.9044553999993,1643.1050607999932,piepen,gebaren,1,borstelen,0
50,9.954125199990813,1126.7460216999898,none,0,1647.9323433999962,1648.8238660999923,1658.811573400002,1675.66823499999,piepen,gebaren,2,dood,0
50,9.954125199990813,1126.7460216999898,practice,1,1713.3351324999967,1715.4063152000017,1717.9422746999917,1721.3008802999975,zwaaien,gebaren,0,zwaaien,0
50,9.954125199990813,1126.7460216999898,practice,1,1721.9101044999989,1725.1689200999972,1732.2207526999991,1734.4439942000026,bal,gebaren,0,bal,0
50,9.954125199990813,1126.7460216999898,none,1,1736.6624861000018,1738.5489455999923,1742.959236900002,1744.9037629999948,groot,gebaren,0,hoog,0
50,9.954125199990813,1126.7460216999898,none,1,1747.6812824999943,1750.1384911999921,1756.8971816999983,1764.3818154000037,groot,gebaren,1,berg,0
50,9.954125199990813,1126.7460216999898,none,1,1768.34263069999,1770.1012899999914,1780.7839639000013,1784.1095770999964,groot,gebaren,2,enorm,0
50,9.954125199990813,1126.7460216999898,none,1,1787.645500700004,1794.4746250000026,1802.934122999999,1807.8966036999918,zoemen,gebaren,0,golven,0
50,9.954125199990813,1126.7460216999898,none,1,1811.4323519000027,1817.0916695999913,1826.417889199991,1838.493295399996,zoemen,gebaren,1,vis,0
50,9.954125199990813,1126.7460216999898,none,1,1846.0545955999987,1848.859763200002,1857.518304199999,1875.2650095999998,zoemen,gebaren,2,vogel,0
50,9.954125199990813,1126.7460216999898,none,1,1880.4764491999958,1882.7457173000003,1888.5647288000036,1890.6505177999934,kat,gebaren,0,kat,2
50,9.954125199990813,1126.7460216999898,none,1,1891.2361961999995,1896.9864699000027,1912.8935991999897,1929.5065621999966,ei,gebaren,0,poepen,0
50,9.954125199990813,1126.7460216999898,none,1,1933.8426772999956,1935.9852845999994,1947.3820486999903,1950.8513739999908,ei,gebaren,1,pannenkoek,0
50,9.954125199990813,1126.7460216999898,none,1,1954.636852800002,1957.0940364999988,1967.7021973999945,1969.5290969999915,ei,gebaren,2,ei,0.5
50,9.954125199990813,1126.7460216999898,none,1,1970.005399200003,1975.9778745999938,1981.3546952000033,1993.5243371999968,bliksem,gebaren,0,schudden,0
50,9.954125199990813,1126.7460216999898,none,1,1998.5026691999956,2001.4486094000022,2010.2818769000005,2012.9524175999977,bliksem,gebaren,1,smijten,0
50,9.954125199990813,1126.7460216999898,none,1,2017.1136499999993,2023.2326736999967,2032.4389706999937,2035.3814724999975,bliksem,gebaren,2,vallen,0
50,9.954125199990813,1126.7460216999898,none,1,2039.4422489999997,2052.2422403999954,2069.832192899994,2072.8116561999923,man,gebaren,0,trouwen,0
50,9.954125199990813,1126.7460216999898,none,1,2079.1896536999993,2084.3316720000003,2096.317886299992,2105.9160868000035,man,gebaren,1,kapper,0
50,9.954125199990813,1126.7460216999898,none,1,2111.577737300002,2119.975449599995,2132.375650300004,2140.9298419999977,man,gebaren,2,bruid,0
50,9.954125199990813,1126.7460216999898,none,1,2145.8071507999994,2150.421262899996,2154.6878062000033,2157.658249500004,staan,gebaren,0,staan,2
50,9.954125199990813,2159.5515775999957,practice,0,2193.1971013,2199.59747149999,2203.2152477999916,2205.5662994000013,zingen,combinatie,0,zingen,0
50,9.954125199990813,2159.5515775999957,practice,0,2206.0072766999947,2208.0599188999913,2216.643747299997,2218.916387999998,vliegtuig,combinatie,0,vliegen,0
50,9.954125199990813,2159.5515775999957,practice,0,2222.1856951999944,2223.0245949999953,2233.365148900004,2245.345776999995,vliegtuig,combinatie,1,vliegtuig,0
50,9.954125199990813,2159.5515775999957,none,0,2247.7727389999927,2250.824137100004,2258.7364515999943,2260.6978328999976,vogel,combinatie,0,vogel,2
50,9.954125199990813,2159.5515775999957,none,0,2261.1415192999993,2263.628952999992,2270.946508299996,2274.5416949999926,bitter,combinatie,0,vies,0
50,9.954125199990813,2159.5515775999957,none,0,2278.6355779000005,2280.703123600004,2291.0720347000024,2293.3276333999966,bitter,combinatie,1,zuur,0
50,9.954125199990813,2159.5515775999957,none,0,2296.2303885,2296.648300899993,2312.6335761999944,2316.573079499998,bitter,combinatie,2,bitter,0.5
50,9.954125199990813,2159.5515775999957,none,0,2317.191874600001,2319.998410500004,2323.6010031999904,2326.849503099991,walgen,combinatie,0,vies,0
50,9.954125199990813,2159.5515775999957,none,0,2329.235817599998,2331.7025770000037,2337.9853797999967,2340.4934303999908,walgen,combinatie,1,kotsen,0
50,9.954125199990813,2159.5515775999957,none,0,2344.1289025000005,2347.8512899999914,2357.388084799997,2365.331451299993,walgen,combinatie,2,kokhalzen,0
50,9.954125199990813,2159.5515775999957,none,0,2369.6245772999973,2374.623994499998,2380.1570494999905,2383.7495693999954,vlieg,combinatie,0,wesp,0
50,9.954125199990813,2159.5515775999957,none,0,2388.8276850999973,2392.53667039999,2399.4284120999946,2407.6281373999955,vlieg,combinatie,1,vlieg,1
50,9.954125199990813,2159.5515775999957,none,0,2408.4300034999906,2409.8014981000015,2415.6116244000004,2419.446635500004,verdrietig,combinatie,0,verdrietig,2
50,9.954125199990813,2159.5515775999957,none,0,2420.0985194999957,2423.954828999995,2430.963375499996,2432.6909720999975,zoet,combinatie,0,lekker,0
50,9.954125199990813,2159.5515775999957,none,0,2436.076821900002,2437.151282299994,2443.127059199993,2446.0758002999937,zoet,combinatie,1,zoet,1
50,9.954125199990813,2159.5515775999957,none,0,2446.7531235999923,2448.6908757999918,2452.165211899992,2454.9938073999947,likken,combinatie,0,likken,2
50,9.954125199990813,2159.5515775999957,practice,1,2479.749446799993,2482.499878200004,2488.5301991000015,2491.490946699996,fiets,combinatie,0,fietsen,0
50,9.954125199990813,2159.5515775999957,practice,1,2494.4600721000024,2496.5860293000005,2502.8958895999967,2506.4514846999955,fiets,combinatie,1,fietsbel,0
50,9.954125199990813,2159.5515775999957,practice,1,2510.43793629999,2512.293572499999,2522.579273399999,2548.0160637999943,fiets,combinatie,2,wielrennen,0
50,9.954125199990813,2159.5515775999957,practice,1,2552.126655400003,2555.9508074999903,2568.621906500004,2571.053007800001,klok,combinatie,0,klok,0
50,9.954125199990813,2159.5515775999957,none,1,2573.3383799000003,2576.0889595999906,2579.6906573000015,2581.7961208999914,hond,combinatie,0,hond,2
50,9.954125199990813,2159.5515775999957,none,1,2582.2976920999936,2585.361432299993,2592.5865332999965,2594.4897280000005,ver,combinatie,0,ver,2
50,9.954125199990813,2159.5515775999957,none,1,2595.0915491999913,2597.5235632999975,2603.664693899991,2607.068020999999,misschien,combinatie,0,twijfelen,0
50,9.954125199990813,2159.5515775999957,none,1,2611.052464099994,2613.25737929999,2619.0747980000015,2623.3940501000034,misschien,combinatie,1,kiezen,0
50,9.954125199990813,2159.5515775999957,none,1,2627.2461610000028,2629.4213075000007,2635.952875799994,2641.0050442999927,misschien,combinatie,2,onzeker,0
50,9.954125199990813,2159.5515775999957,none,1,2644.499498099991,2650.4184203999903,2656.817404699992,2660.6164741999964,geur,combinatie,0,ruiken,0
50,9.954125199990813,2159.5515775999957,none,1,2663.327013599992,2665.209443899992,2671.8579085999954,2675.8436986000015,geur,combinatie,1,geur,1
50,9.954125199990813,2159.5515775999957,none,1,2676.3955023000017,2678.11801179999,2681.608441599994,2693.5963066999975,bang,combinatie,0,eng,0
50,9.954125199990813,2159.5515775999957,none,1,2697.540518199996,2698.9992128000013,2705.631029700002,2707.6909682999976,bang,combinatie,1,bang,1
50,9.954125199990813,2159.5515775999957,none,1,2708.216961600003,2711.900405799999,2724.9701356000005,2727.3180877999985,onweer,combinatie,0,bliksem,0
50,9.954125199990813,2159.5515775999957,none,1,2730.461859499992,2731.9281131000025,2743.2137972999917,2745.620513899994,onweer,combinatie,1,donder,0
50,9.954125199990813,2159.5515775999957,none,1,2749.006299300003,2750.9457971999946,2763.6031955999933,2766.049525299997,onweer,combinatie,2,onweer,0.5
50,9.954125199990813,2159.5515775999957,none,1,2766.6004813000036,2768.724534599998,2775.743538499999,2779.150787599996,vangen,combinatie,0,ontwijken,0
50,9.954125199990813,2159.5515775999957,none,1,2782.9947404999984,2784.134447000004,2793.9778267999936,2797.6367867999943,vangen,combinatie,1,vangen,1
