ID,exp_start,block_start,practice,cycle,display_start,trial_start,trial_end,RT,word,modality,correction,answer,points
51,6.397910499999853,798.0698919999998,practice,0,902.1177104999999,904.1773402000001,923.2667806000002,964.392267,dansen,geluiden,,discodisco,0
51,6.397910499999853,798.0698919999998,practice,0,964.4353766000002,966.5227493,981.7632418999999,984.8457055000001,auto,geluiden,,auto,0
51,6.397910499999853,798.0698919999998,none,0,989.3557822,991.6749431000001,1000.3574775,1018.0750036000002,boos,geluiden,,balen,0
51,6.397910499999853,798.0698919999998,none,0,1018.1099345999999,1020.5636517999999,1028.2949728,1031.2026023,koud,geluiden,,koud,1
51,6.397910499999853,798.0698919999998,none,0,1031.2453279999997,1034.0123191999999,1043.9764063999999,1048.6296725,ver,geluiden,,zuchten,0
51,6.397910499999853,798.0698919999998,none,0,1048.6646970999998,1051.3011291,1063.0968215,1071.7248235,zout,geluiden,,eten,0
51,6.397910499999853,798.0698919999998,none,0,1071.7593518,1074.4593922000001,1084.8532635999998,1094.6363285,eten,geluiden,,eten,1
51,6.397910499999853,798.0698919999998,none,0,1094.6794240000002,1098.9521257999997,1108.3736235,1116.2561268000002,horen,geluiden,,begrip,0
51,6.397910499999853,798.0698919999998,none,0,1116.2995804999998,1121.5543615,1131.5562164,1150.4121403000001,zwemmen,geluiden,,zweefvliegen,0
51,6.397910499999853,798.0698919999998,practice,1,1346.3413327,1355.0872769,1362.6527079,1367.8609863999998,haasten,geluiden,,zweten,0
51,6.397910499999853,798.0698919999998,practice,1,1367.9028528000001,1375.8931182,1384.4326554000002,1387.4294297,knippen,geluiden,,knippen,0
51,6.397910499999853,798.0698919999998,none,1,1390.8394203,1396.4955168,1406.3650433,1409.0741064000001,ei,geluiden,,breken,0
51,6.397910499999853,798.0698919999998,none,1,1409.1093751,1417.1705716999998,1429.3044251999997,1433.2704562000001,vis,geluiden,,vis,1
51,6.397910499999853,798.0698919999998,none,1,1433.3128681,1438.7987424,1443.8983089,1445.5296102999998,vlieg,geluiden,,bij,0
51,6.397910499999853,798.0698919999998,none,1,1445.5733907000001,1450.8880106,1455.4314051999997,1458.5149694,verdrietig,geluiden,,huilen,0
51,6.397910499999853,798.0698919999998,none,1,1458.5578002999998,1460.7720459999998,1467.2667011,1470.5333076,bang,geluiden,,schrikken,0
51,6.397910499999853,798.0698919999998,none,1,1470.5681207,1473.1244869999998,1481.2304797,1485.0442953,slang,geluiden,,afkeuring,0
51,6.397910499999853,798.0698919999998,none,1,1485.0792132999998,1490.9557905,1497.7399417,1500.8968005999998,zuur,geluiden,,vuurwerk,0
51,6.397910499999853,1502.5479543,practice,0,1598.1120276,1601.8039713,1608.7931978999998,1615.5295783,gek,combinatie,,dol,0
51,6.397910499999853,1502.5479543,practice,0,1615.5814414,1618.2600086999998,1625.1615765999998,1628.4151555,olifant,combinatie,,olifant,0
51,6.397910499999853,1502.5479543,none,0,1631.0917524,1633.1286237000002,1639.0756451,1642.4752325000002,vogel,combinatie,,vogel,1
51,6.397910499999853,1502.5479543,none,0,1642.5186044,1644.6169501000002,1654.8362771,1658.1941358000001,berg,combinatie,,klimmen,0
51,6.397910499999853,1502.5479543,none,0,1658.2373480999997,1660.320645,1670.0150173999998,1672.8714208999997,scherp,combinatie,,snijden,0
51,6.397910499999853,1502.5479543,none,0,1672.9144076,1675.3531461999999,1682.7916082999998,1686.7654544,langzaam,combinatie,,slowmotion,0
51,6.397910499999853,1502.5479543,none,0,1686.7999028000002,1689.0307105,1697.3574056999998,1726.9718354,klein,combinatie,,kuikentje,0
51,6.397910499999853,1502.5479543,none,0,1727.0141643,1729.0880445,1738.7361447,1748.0405303,slaan,combinatie,,slaan,1
51,6.397910499999853,1502.5479543,none,0,1748.0754151999997,1750.5352864,1755.9766358,1761.8676635,weten,combinatie,,begrijpen,0
51,6.397910499999853,1502.5479543,practice,1,1845.7986385000002,1848.4030231999998,1859.3677381999998,1861.9157238,koken,combinatie,,koken,0
51,6.397910499999853,1502.5479543,practice,1,1861.9672669,1864.5675734999998,1872.4182628,1875.1176853,snijden,combinatie,,scherp,0
51,6.397910499999853,1502.5479543,none,1,1878.2445185,1882.1585745,1892.2587197999999,1894.4454987000001,zoemen,combinatie,,bij,0
51,6.397910499999853,1502.5479543,none,1,1894.480116,1897.8857765,1905.0981166999998,1907.9809395,heet,combinatie,,verbranden,0
51,6.397910499999853,1502.5479543,none,1,1908.0155979999997,1910.1784239,1919.5079466999998,1922.7670563,ziek,combinatie,,ziek,1
51,6.397910499999853,1502.5479543,none,1,1922.8094119999998,1925.4869445000002,1932.3682502,1934.6680995999998,stil,combinatie,,stil,1
51,6.397910499999853,1502.5479543,none,1,1934.711365,1941.2748285,1952.9629068000002,1962.0643011,zoet,combinatie,,kiespijn,0
51,6.397910499999853,1502.5479543,none,1,1962.1069621999998,1965.1081296,1973.3687331999997,1974.9740467999998,staart,combinatie,,paard,0
51,6.397910499999853,1502.5479543,none,1,1975.0087950999998,1978.4613137,1986.2042884999998,1991.0020487,kruipen,combinatie,,kruipen,1
51,6.397910499999853,1992.5781974999998,practice,0,2042.7271505,2045.4992137000002,2051.355112,2053.1272128,rijk,gebaren,,geld,0
51,6.397910499999853,1992.5781974999998,practice,0,2053.1704431999997,2057.5083311999997,2066.9620913,2070.0806064999997,leeg,gebaren,,zoeken,0
51,6.397910499999853,1992.5781974999998,none,0,2072.9314146999996,2074.9160490000004,2079.1776996,2085.5068756,goed,gebaren,,goed,1
51,6.397910499999853,1992.5781974999998,none,0,2085.5416585000003,2088.7507643,2101.813918,2112.5691181,oud,gebaren,,bejaarde,0
51,6.397910499999853,1992.5781974999998,none,0,2112.6126602000004,2114.8153377,2121.5690429999995,2123.9385408,drinken,gebaren,,drinken,1
51,6.397910499999853,1992.5781974999998,none,0,2123.9807223999996,2128.094142,2133.8819605,2136.4477455999995,springen,gebaren,,springen,1
51,6.397910499999853,1992.5781974999998,none,0,2136.4912243,2138.7407325000004,2144.8679782,2146.5498688999996,likken,gebaren,,ijsje,0
51,6.397910499999853,1992.5781974999998,none,0,2146.5840319,2148.7177233,2155.7427974,2157.4007367000004,slapen,gebaren,,slapen,1
51,6.397910499999853,1992.5781974999998,none,0,2157.4358869,2159.1974309999996,2164.6696457999997,2166.7605848000003,lopen,gebaren,,wandelen,0
51,6.397910499999853,1992.5781974999998,practice,1,2226.1375601,2228.4651163,2237.0618341,2245.3472136,bloem,gebaren,,geven,0
51,6.397910499999853,1992.5781974999998,practice,1,2245.3903168999996,2252.2130202999997,2263.5399934999996,2266.4586384000004,comfortabel,gebaren,,knuffelen,0
51,6.397910499999853,1992.5781974999998,none,1,2270.3028686,2273.7089032000003,2282.1486031000004,2284.9195389999995,hond,gebaren,,hond,1
51,6.397910499999853,1992.5781974999998,none,1,2284.9544404,2288.2023633,2293.6086304,2296.7879649999995,snel,gebaren,,rennen,0
51,6.397910499999853,1992.5781974999998,none,1,2296.831386,2300.9505929999996,2307.4828685,2311.3749741,luidruchtig,gebaren,,schreeuwen,0
51,6.397910499999853,1992.5781974999998,none,1,2311.4083582000003,2314.0307132,2322.8046489999997,2324.9839930999997,geur,gebaren,,geur,1
51,6.397910499999853,1992.5781974999998,none,1,2325.0267893,2327.0153023000003,2332.9814362999996,2334.4437162000004,regen,gebaren,,regen,1
51,6.397910499999853,1992.5781974999998,none,1,2334.4869047,2338.0213333,2345.1158163,2347.5121855999996,onweer,gebaren,,ster,0
51,6.397910499999853,1992.5781974999998,none,1,2347.5471255,2350.3483152999997,2359.9568535,2361.439279,wind,gebaren,,wind,1
