ID,exp_start,block_start,practice,cycle,display_start,trial_start,trial_end,RT,word,modality,correction,answer,points
53,55.78312899999946,116.1709694000001,practice,0,135.09029199999895,137.81406029999926,142.96333049999885,146.2235184000001,vliegtuig,gebaren,0,vliegen,0
53,55.78312899999946,116.1709694000001,practice,0,150.90189049999935,152.79009659999974,159.62049560000014,165.10131550000006,vliegtuig,gebaren,1,zweven,0
53,55.78312899999946,116.1709694000001,practice,0,170.75417249999919,175.63879579999957,186.39330719999998,193.356012799999,vliegtuig,gebaren,2,hoogte,0
53,55.78312899999946,116.1709694000001,practice,0,198.8170640999997,202.02103030000035,206.06595879999986,209.70844899999975,glimlach,gebaren,0,blij,0
53,55.78312899999946,116.1709694000001,practice,0,213.3691773999999,214.54994090000037,217.74240119999922,225.96862969999893,glimlach,gebaren,1,mond,0
53,55.78312899999946,116.1709694000001,practice,0,230.30485659999977,232.2497629999998,237.51901329999964,240.71259499999906,glimlach,gebaren,2,glimlach,0
53,55.78312899999946,116.1709694000001,none,0,244.42310629999884,245.8484181999993,251.72435229999974,255.0147423999988,walgen,gebaren,0,stank,0
53,55.78312899999946,116.1709694000001,none,0,258.0921982999989,260.08571630000006,266.4085706999995,281.8519596999995,walgen,gebaren,1,vies,0
53,55.78312899999946,116.1709694000001,none,0,289.73867509999945,303.76159519999965,310.16892199999893,320.84122690000004,walgen,gebaren,2,raar,0
53,55.78312899999946,116.1709694000001,none,0,325.5185368000002,333.33672829999887,339.10071509999943,351.2873675999999,vlieg,gebaren,0,bij,0
53,55.78312899999946,116.1709694000001,none,0,355.6148895999995,357.1096471000001,362.7532410999993,364.88942659999884,vlieg,gebaren,1,vlieg,1
53,55.78312899999946,116.1709694000001,none,0,365.94967129999895,369.2379495999994,374.4210645000003,376.40021539999907,dik,gebaren,0,dik,2
53,55.78312899999946,116.1709694000001,none,0,377.4766698000003,379.9947427999996,384.07131879999906,385.98499900000024,huilen,gebaren,0,huilen,2
53,55.78312899999946,116.1709694000001,none,0,386.9610124999999,389.90704019999976,394.9492761999991,397.42755169999873,vliegen,gebaren,0,vliegen,2
53,55.78312899999946,116.1709694000001,none,0,400.2548018999987,402.2178437999992,405.4907800000001,407.937479799999,slaan,gebaren,0,vechten,0
53,55.78312899999946,116.1709694000001,none,0,411.5233522999988,414.4334455999997,416.9107062000003,419.014151899999,slaan,gebaren,1,slaan,1
53,55.78312899999946,116.1709694000001,none,0,423.16670669999985,425.52560939999967,431.0723182999991,433.2163146999992,kotsen,gebaren,0,kotsen,2
53,55.78312899999946,116.1709694000001,practice,1,483.41755589999957,485.6908083999988,492.1127016999999,494.2754666000001,zwaaien,gebaren,0,zwaaien,0
53,55.78312899999946,116.1709694000001,practice,1,497.09394059999977,499.0844388000005,504.33822770000006,507.0854817999989,juichen,gebaren,0,juichen,0
53,55.78312899999946,116.1709694000001,none,1,510.5127089999987,512.369690399999,517.7357262000005,519.3788731000004,boos,gebaren,0,boos,2
53,55.78312899999946,116.1709694000001,none,1,520.0307954999989,522.5985581999994,526.3994708999999,528.3141615999994,groot,gebaren,0,hoog,0
53,55.78312899999946,116.1709694000001,none,1,531.4830482999987,532.1741634999998,536.9895070999992,540.2157506999993,groot,gebaren,1,groot,1
53,55.78312899999946,116.1709694000001,none,1,540.6674573,543.1426417999992,548.531454599999,550.7085248000003,vrouw,gebaren,0,lichaam,0
53,55.78312899999946,116.1709694000001,none,1,554.2445286999991,555.2701864999999,558.8560502,560.660004899999,vrouw,gebaren,1,vrouw,1
53,55.78312899999946,116.1709694000001,none,1,561.2453446999989,563.826525299999,569.2444770000002,572.0535075999996,bliksem,gebaren,0,explosie,0
53,55.78312899999946,116.1709694000001,none,1,574.9065465000003,575.1600297000005,582.5479728999999,584.6302328000002,bliksem,gebaren,1,vallen,0
53,55.78312899999946,116.1709694000001,none,1,588.4001322000004,589.0441157000005,599.5746075999996,603.3495244999995,bliksem,gebaren,2,vuurwerk,0
53,55.78312899999946,116.1709694000001,none,1,611.9033564000001,614.3945801999998,621.6969626999999,623.8366095000001,regen,gebaren,0,douchen,0
53,55.78312899999946,116.1709694000001,none,1,629.5306272999987,630.3603967999989,638.1309549999987,642.2474634999999,regen,gebaren,1,regendans,0
53,55.78312899999946,116.1709694000001,none,1,647.3088504999996,647.5814492999998,652.1677070999995,654.6658088999993,regen,gebaren,2,douche,0
53,55.78312899999946,116.1709694000001,none,1,658.7184763000005,660.7113246999998,665.3569520000001,666.9675952999987,sterk,gebaren,0,sterk,2
53,55.78312899999946,116.1709694000001,none,1,668.3194915000004,670.1719651000003,675.4178381999991,676.7606763999993,geven,gebaren,0,geven,2
53,55.78312899999946,684.1468081999992,practice,0,756.5906957999996,781.6541438999993,787.3745916999997,797.9035057000001,bal,geluiden,0,dier,0
53,55.78312899999946,684.1468081999992,practice,0,803.6065959999996,803.8761845999998,809.4518412999987,813.6987681999999,bal,geluiden,1,doelpunt,0
53,55.78312899999946,684.1468081999992,practice,0,818.6672488999993,822.6072827999997,826.4126345999994,833.3004748000003,bal,geluiden,2,schot,0
53,55.78312899999946,684.1468081999992,practice,0,837.8949816999993,841.0538266000003,846.3644375000003,853.3118397999988,geheim,geluiden,0,plassen,0
53,55.78312899999946,684.1468081999992,practice,0,857.8896408,859.5006273999988,863.977058299999,865.4136531999993,geheim,geluiden,1,muis,0
53,55.78312899999946,684.1468081999992,practice,0,872.8085008999988,880.8760048999993,884.2705050999994,890.3256461000001,geheim,geluiden,2,fluisteren,0
53,55.78312899999946,684.1468081999992,none,0,898.5535686000003,903.7032218000004,907.4162092999995,909.8951103999989,vogel,geluiden,0,wind,0
53,55.78312899999946,684.1468081999992,none,0,913.0058044999987,914.4171463999992,917.3422013999989,929.0478982000004,vogel,geluiden,1,juichen,0
53,55.78312899999946,684.1468081999992,none,0,933.6088079000001,937.7871634000003,941.9338520000001,944.5002920999996,vogel,geluiden,2,blazen,0
53,55.78312899999946,684.1468081999992,none,0,947.9946591999997,954.7840858999989,958.1114084000001,961.3194640000002,bitter,geluiden,0,vies,0
53,55.78312899999946,684.1468081999992,none,0,965.6303912999992,968.1001691999991,971.6531954999991,973.8380139000001,bitter,geluiden,1,kotsen,0
53,55.78312899999946,684.1468081999992,none,0,976.1154233999987,979.6744842999997,982.6798139999992,1008.4181491999989,bitter,geluiden,2,spugen,0
53,55.78312899999946,684.1468081999992,none,0,1014.5964243999988,1016.9208142999996,1020.5430271999994,1021.7367978999991,hond,geluiden,0,hond,2
53,55.78312899999946,684.1468081999992,none,0,1022.7476435999997,1028.1360243999989,1031.9905320999987,1047.065563,geur,geluiden,0,zuur,0
53,55.78312899999946,684.1468081999992,none,0,1052.476864799999,1055.8218589999997,1059.3261893,1063.4179946000004,geur,geluiden,1,spray,0
53,55.78312899999946,684.1468081999992,none,0,1068.1880302999998,1071.0520333999993,1075.9338420000004,1080.5457606,geur,geluiden,2,verkouden,0
53,55.78312899999946,684.1468081999992,none,0,1085.6735190999989,1092.6283566999991,1096.5542582999988,1098.7898289000004,zoet,geluiden,0,lekker,0
53,55.78312899999946,684.1468081999992,none,0,1102.8843130000005,1111.7013138000002,1117.589538799999,1128.6192945999992,zoet,geluiden,1,eten,0
53,55.78312899999946,684.1468081999992,none,0,1136.1310952000003,1140.2379351,1145.1047416000001,1173.3676472999996,zoet,geluiden,2,smaakvol,0
53,55.78312899999946,684.1468081999992,none,0,1176.8204483999998,1179.7472367999999,1184.9932651999989,1197.4800063000002,ademen,geluiden,0,ademen,2
53,55.78312899999946,684.1468081999992,none,0,1198.4151084999994,1204.721967899999,1209.0277650999997,1211.1148753999987,lopen,geluiden,0,spray,0
53,55.78312899999946,684.1468081999992,none,0,1214.6176200999998,1223.0887172000002,1226.9749082999988,1229.5759828999999,lopen,geluiden,1,hout,0
53,55.78312899999946,684.1468081999992,none,0,1233.8281361999998,1237.9768153000005,1242.3201283999988,1247.978665499999,lopen,geluiden,2,sporten,0
53,55.78312899999946,684.1468081999992,practice,1,1282.5185561999988,1292.9173248999996,1298.6025142999988,1304.3619612999992,fiets,geluiden,0,wind,0
53,55.78312899999946,684.1468081999992,practice,1,1308.2731451,1309.288479499999,1314.7126446000002,1318.8725336999996,fiets,geluiden,1,gooien,0
53,55.78312899999946,684.1468081999992,practice,1,1323.1506250999992,1324.6208917000004,1331.8860712999995,1336.8092426000003,fiets,geluiden,2,sporten,0
53,55.78312899999946,684.1468081999992,practice,1,1340.7025149,1342.8791968999994,1348.9585783999992,1354.0859366000004,klok,geluiden,0,hout,0
53,55.78312899999946,684.1468081999992,practice,1,1359.906184899999,1360.8470304000002,1367.8464304999998,1369.305012499999,klok,geluiden,1,wekker,0
53,55.78312899999946,684.1468081999992,practice,1,1373.4239564,1374.1618215999988,1381.9696669000004,1383.5404672999994,klok,geluiden,2,klok,0
53,55.78312899999946,684.1468081999992,none,1,1386.2341760999989,1388.4093376,1392.7057585000002,1397.8508247999998,koud,geluiden,0,koud,2
53,55.78312899999946,684.1468081999992,none,1,1398.6195004,1402.1142569000003,1406.6803352999996,1422.2709630999998,stil,geluiden,0,staan,0
53,55.78312899999946,684.1468081999992,none,1,1426.2238435,1426.7782521999998,1432.2272295000002,1433.7063185999996,stil,geluiden,1,stilte,1
53,55.78312899999946,684.1468081999992,none,1,1437.2335079000004,1444.7466839999997,1451.833991899999,1463.218766599999,langzaam,geluiden,0,lopen,0
53,55.78312899999946,684.1468081999992,none,1,1468.8133521,1472.2902601999995,1479.2110835000003,1484.714159199999,langzaam,geluiden,1,rijden,0
53,55.78312899999946,684.1468081999992,none,1,1489.8248504000003,1496.2226118999988,1502.601509799999,1508.317287599999,langzaam,geluiden,2,vliegen,0
53,55.78312899999946,684.1468081999992,none,1,1511.9450183999998,1519.7930312999997,1524.8746692000004,1526.0450392999992,staart,geluiden,0,snel,0
53,55.78312899999946,684.1468081999992,none,1,1531.2143512999992,1537.3719151000005,1542.2025759999997,1543.4058981999988,staart,geluiden,1,wind,0
53,55.78312899999946,684.1468081999992,none,1,1547.7413263999988,1551.3197387,1555.7260855000004,1560.249983399999,staart,geluiden,2,rennen,0
53,55.78312899999946,684.1468081999992,none,1,1563.727428799999,1565.626379199999,1568.8960097999989,1570.7097725000003,drinken,geluiden,0,drinken,2
53,55.78312899999946,684.1468081999992,none,1,1572.0535299999992,1576.692810999999,1581.3383470999997,1589.7543750000004,springen,geluiden,0,springen,2
53,55.78312899999946,684.1468081999992,none,1,1591.2149935999987,1593.4992039999997,1598.4259877999993,1602.0226358,water,geluiden,0,spugen,0
53,55.78312899999946,684.1468081999992,none,1,1606.0668257999987,1606.6957346999989,1610.5927637999994,1612.8744590999995,water,geluiden,1,drinken,0
53,55.78312899999946,684.1468081999992,none,1,1616.0854796999993,1617.010592999999,1622.9486442999987,1629.827002599999,water,geluiden,2,water,0.5
53,55.78312899999946,1634.0130315999995,practice,0,1682.4695694000002,1690.7544273999993,1694.0786374999989,1698.970406299999,zingen,combinatie,0,zingen,0
53,55.78312899999946,1634.0130315999995,practice,0,1699.5056819000001,1704.1009400999992,1709.5271484000004,1723.8074137000003,sneeuw,combinatie,0,gooien,0
53,55.78312899999946,1634.0130315999995,practice,0,1726.6347695000004,1728.1136408000002,1736.4588489999987,1740.9184968999998,sneeuw,combinatie,1,sneeuwbal,0
53,55.78312899999946,1634.0130315999995,practice,0,1744.8551725999987,1746.4483067,1752.557578,1755.4620522999994,sneeuw,combinatie,2,sneeuw,0
53,55.78312899999946,1634.0130315999995,none,0,1757.6565661000004,1759.0701645999998,1763.1523785999998,1778.7658205999996,ik,combinatie,0,vrouw,0
53,55.78312899999946,1634.0130315999995,none,0,1783.6767198999987,1789.325542999999,1799.0256919000003,1806.769743499999,ik,combinatie,1,vrouw,0
53,55.78312899999946,1634.0130315999995,none,0,1817.2315338999997,1821.2226329999994,1825.6155928999997,1828.6981901999989,ik,combinatie,2,winnaar,0
53,55.78312899999946,1634.0130315999995,none,0,1833.9515952000002,1836.730150899999,1842.6111487999988,1845.6339575999991,zwaar,combinatie,0,optillen,0
53,55.78312899999946,1634.0130315999995,none,0,1849.0865687999994,1851.1844084999993,1857.2750668999997,1859.6025957000002,zwaar,combinatie,1,zwaar,1
53,55.78312899999946,1634.0130315999995,none,0,1860.1711825999992,1866.5738158000004,1872.6679982999995,1880.2222019,berg,combinatie,0,skien,0
53,55.78312899999946,1634.0130315999995,none,0,1884.9668636999995,1887.6271837999993,1893.7014832999994,1908.9431368999994,berg,combinatie,1,gras,0
53,55.78312899999946,1634.0130315999995,none,0,1914.5965916000005,1915.9459324,1922.2297323999992,1924.6872805999992,berg,combinatie,2,klimmen,0
53,55.78312899999946,1634.0130315999995,none,0,1928.4811676999998,1930.5177215000003,1934.4076437000003,1938.9228043999992,horen,combinatie,0,luisteren,0
53,55.78312899999946,1634.0130315999995,none,0,1942.7757953,1945.6161210999999,1949.2467926999998,1950.4584900999998,horen,combinatie,1,horen,1
53,55.78312899999946,1634.0130315999995,none,0,1950.9930695000003,1953.8375285999991,1957.2406068,1959.8427754000004,likken,combinatie,0,likken,2
53,55.78312899999946,1634.0130315999995,none,0,1960.3027597,1963.834619199999,1966.9885802999997,1968.7273081999992,ruiken,combinatie,0,ruiken,2
53,55.78312899999946,1634.0130315999995,none,0,1969.4370901999991,1973.674358799999,1977.6725683000004,1979.2621820000004,zuigen,combinatie,0,inademen,0
53,55.78312899999946,1634.0130315999995,none,0,1983.1647568999997,1987.9267765000004,1992.1625853999994,1994.6643477999987,zuigen,combinatie,1,zuigen,1
53,55.78312899999946,1634.0130315999995,practice,1,2024.536855299999,2032.0372877999998,2035.9525550999988,2036.9791384,eend,combinatie,0,eend,0
53,55.78312899999946,1634.0130315999995,practice,1,2040.2562583999988,2042.3170212999994,2047.403860299999,2048.7308493,telefoon,combinatie,0,bellen,0
53,55.78312899999946,1634.0130315999995,practice,1,2051.8666591,2052.547296999999,2056.661662499999,2058.6571970000005,telefoon,combinatie,1,telefoon,0
53,55.78312899999946,1634.0130315999995,none,1,2061.459034199999,2064.0236888,2068.5719556000004,2069.6922145999997,kind,combinatie,0,kind,2
53,55.78312899999946,1634.0130315999995,none,1,2070.2357672999988,2071.8930265,2075.5902377,2077.0680345,snel,combinatie,0,rennen,0
53,55.78312899999946,1634.0130315999995,none,1,2079.8541817000005,2080.5758798999996,2085.0187721,2085.9445775000004,snel,combinatie,1,snel,1
53,55.78312899999946,1634.0130315999995,none,1,2086.338063899999,2088.3003864,2091.3450378,2092.8547148,bang,combinatie,0,bang,2
53,55.78312899999946,1634.0130315999995,none,1,2093.4475526999995,2095.588861799999,2100.3056976999997,2101.9387511999994,zuur,combinatie,0,vies,0
53,55.78312899999946,1634.0130315999995,none,1,2105.391026199999,2106.4377898000002,2111.4625273,2112.5817879999995,zuur,combinatie,1,walgen,0
53,55.78312899999946,1634.0130315999995,none,1,2120.0433667999987,2122.7784087,2128.715187399999,2130.3929007999996,zuur,combinatie,2,bitter,0
53,55.78312899999946,1634.0130315999995,none,1,2134.5957915,2142.984384199999,2146.9046204999995,2149.2788550999994,piepen,combinatie,0,kuiken,0
53,55.78312899999946,1634.0130315999995,none,1,2152.9321664,2162.5359565,2167.2503749999996,2170.1071367999994,piepen,combinatie,1,kraken,0
53,55.78312899999946,1634.0130315999995,none,1,2177.1272688999998,2178.0408725999987,2184.030629499999,2187.1262683999994,piepen,combinatie,2,oud,0
53,55.78312899999946,1634.0130315999995,none,1,2192.687041199999,2196.0210800999994,2200.1829448999997,2201.4616327000003,grommen,combinatie,0,boos,0
53,55.78312899999946,1634.0130315999995,none,1,2205.2808174,2205.9175290999992,2209.5370941,2217.2223531,grommen,combinatie,1,brullen,0
53,55.78312899999946,1634.0130315999995,none,1,2221.4417973,2222.4126691,2226.883922199999,2230.4993615000003,grommen,combinatie,2,gevaarlijk,0
53,55.78312899999946,1634.0130315999995,none,1,2234.0181737000003,2236.2533016999987,2240.0764344,2241.6092267999993,rennen,combinatie,0,rennen,2
