ID,exp_start,block_start,practice,cycle,display_start,trial_start,trial_end,RT,word,modality,correction,answer,points
57,109.67526219999945,157.80293919999986,practice,0,266.29356540000026,270.0317149000002,300.41121120000025,305.9896597999996,koken,combinatie,,koken,0
57,109.67526219999945,157.80293919999986,practice,0,306.0407940999994,309.1250736000002,313.2311778000003,318.6246911999997,comfortabel,combinatie,,lachen,0
57,109.67526219999945,157.80293919999986,none,0,357.75746639999943,360.12262029999965,369.04489680000006,381.65088469999955,groot,combinatie,,juichen,0
57,109.67526219999945,157.80293919999986,none,0,381.6859362999994,384.5551845,387.63861180000004,390.2354964999995,hond,combinatie,,hond,1
57,109.67526219999945,157.80293919999986,none,0,390.270493,391.5025611000001,399.6748149999994,403.9373937999999,berg,combinatie,,bergen,0
57,109.67526219999945,157.80293919999986,none,0,403.97288669999944,406.47457570000006,409.4726105999998,412.9476026000002,geven,combinatie,,geven,1
57,109.67526219999945,157.80293919999986,none,0,412.99008479999975,414.45905309999944,418.66291569999976,424.7574619999996,weten,combinatie,,slim,0
57,109.67526219999945,157.80293919999986,none,0,424.7923923999997,427.0250256999998,430.8529188000002,433.1670801,lachen,combinatie,,lachen,1
57,109.67526219999945,157.80293919999986,none,0,433.20192020000013,435.7761934,439.61593509999966,441.7105031000001,rennen,combinatie,,rennen,1
57,109.67526219999945,157.80293919999986,practice,1,536.2838934000001,539.5508002999995,543.2559059999994,548.9341605999998,gek,combinatie,,beer,0
57,109.67526219999945,157.80293919999986,practice,1,548.9857223999998,552.0948673000003,557.0986235999999,561.6694738999995,rijk,combinatie,,zacht,0
57,109.67526219999945,157.80293919999986,none,1,564.4716896999998,566.9492868999996,570.6777439999996,572.5877264999999,koud,combinatie,,koud,1
57,109.67526219999945,157.80293919999986,none,1,572.6310687999994,574.5079631999997,577.8499996999999,580.0565630000001,snel,combinatie,,rennen,0
57,109.67526219999945,157.80293919999986,none,1,580.0990507999995,582.5546353999998,587.4614928000001,591.6989661999996,zwaar,combinatie,,honger,0
57,109.67526219999945,157.80293919999986,none,1,591.7338404000002,594.1597117000001,597.6095921999995,600.483491,eten,combinatie,,eten,1
57,109.67526219999945,157.80293919999986,none,1,600.5183686999999,602.5741247999995,606.8194924999998,609.4514294999999,vallen,combinatie,,vallen,1
57,109.67526219999945,157.80293919999986,none,1,609.4948955,611.3316478999996,616.3842548000002,618.7029665999999,slapen,combinatie,,slapen,1
57,109.67526219999945,157.80293919999986,none,1,618.7380053999996,620.7969290999999,624.6859880000002,628.2543472999996,ruiken,combinatie,,stinken,0
57,109.67526219999945,657.0098159999998,practice,0,703.6839125999995,706.5096111000003,709.8268356999997,712.3418161999998,snijden,gebaren,,snijden,0
57,109.67526219999945,657.0098159999998,practice,0,712.3852667000001,714.0947632999996,720.6821674000003,722.9685460999999,auto,gebaren,,auto,0
57,109.67526219999945,657.0098159999998,none,0,725.3873819999999,727.7835496999996,731.0639501999995,734.4705587999997,misschien,gebaren,,beetje,0
57,109.67526219999945,657.0098159999998,none,0,734.5134372000002,735.9568361000001,739.9833290999995,742.5548407999995,verdrietig,gebaren,,huilen,0
57,109.67526219999945,657.0098159999998,none,0,742.5981284999998,744.0099615999998,749.7243582000001,754.4897719999999,scherp,gebaren,,rietje,0
57,109.67526219999945,657.0098159999998,none,0,754.5331684000002,756.1881665999999,761.2032614,765.6082847999996,zoet,gebaren,,lachen,0
57,109.67526219999945,657.0098159999998,none,0,765.6515512999995,767.7001233000001,773.2043291999998,777.2599448000001,verbranden,gebaren,,aaien,0
57,109.67526219999945,657.0098159999998,none,0,777.2947954000001,779.0193534999999,782.0018731,784.1944057999999,slaan,gebaren,,slaan,1
57,109.67526219999945,657.0098159999998,none,0,784.2294581999995,786.2605767999994,792.3852562000002,796.5379957999994,zuigen,gebaren,,zuigen,1
57,109.67526219999945,657.0098159999998,practice,1,853.9812150999996,855.7963729000003,859.7288243000003,862.3058157999994,haasten,gebaren,,rennen,0
57,109.67526219999945,657.0098159999998,practice,1,862.3492285000002,864.6516805000001,870.8589612999995,875.1670717999996,bloem,gebaren,,bloem,0
57,109.67526219999945,657.0098159999998,none,1,877.3932715999999,879.3288775000001,883.2836422,885.7264006999994,bitter,gebaren,,vies,0
57,109.67526219999945,657.0098159999998,none,1,885.7607309999994,888.3649341999999,897.5734372999996,900.7117140999999,kat,gebaren,,muis,0
57,109.67526219999945,657.0098159999998,none,1,900.7466914999995,903.0354048999998,908.6475282000001,913.1470557000002,vuur,gebaren,,vuurwerk,0
57,109.67526219999945,657.0098159999998,none,1,913.1815562000002,915.7321272999998,921.8097443999995,926.9822972000002,hoorn,gebaren,,konijn,0
57,109.67526219999945,657.0098159999998,none,1,927.0256430999998,929.3208635000001,934.4042889000002,936.0251747000002,klein,gebaren,,klein,1
57,109.67526219999945,657.0098159999998,none,1,936.0685240000003,938.6737987999995,943.5166696999995,946.1185730999996,blazen,gebaren,,blazen,1
57,109.67526219999945,657.0098159999998,none,1,946.1614672999995,948.0803513000001,953.4828521,956.1115626999999,fluisteren,gebaren,,fluisteren,1
57,109.67526219999945,958.8970541999997,practice,0,1031.6830766000003,1034.2767607999995,1047.4687789,1051.0758379,dansen,geluiden,,zingen,0
57,109.67526219999945,958.8970541999997,practice,0,1051.1189084999996,1054.3479005999998,1061.972839,1067.9033291999995,leeg,geluiden,,schrikken,0
57,109.67526219999945,958.8970541999997,none,0,1091.2499724999998,1094.3145085999995,1099.1895723999996,1103.5335833,ik,geluiden,,vraag,0
57,109.67526219999945,958.8970541999997,none,0,1103.5768527999999,1106.5710127000002,1114.6044016999995,1117.0274623999994,regen,geluiden,,wind,0
57,109.67526219999945,958.8970541999997,none,0,1117.0704694999995,1122.4634987,1127.7075591000003,1132.5547486999994,zout,geluiden,,vliegen,0
57,109.67526219999945,958.8970541999997,none,0,1132.5983059999999,1134.5260667000002,1137.7617134000002,1141.7642858999998,piepen,geluiden,,huilen,0
57,109.67526219999945,958.8970541999997,none,0,1141.7995447000003,1145.0576075,1148.3019554000002,1154.7997589999995,staart,geluiden,,springen,0
57,109.67526219999945,958.8970541999997,none,0,1154.8429395000003,1156.9498443000002,1161.2700456000002,1164.5344042999996,vliegen,geluiden,,vliegen,1
57,109.67526219999945,958.8970541999997,none,0,1164.5690599,1166.3193763,1170.3373826999996,1174.8859598999998,springen,geluiden,,stuiteren,0
57,109.67526219999945,958.8970541999997,practice,1,1224.9700576999994,1227.3617177999995,1230.3781096000002,1233.0700618,knippen,geluiden,,snijden,0
57,109.67526219999945,958.8970541999997,practice,1,1233.1128707999997,1235.6111087999998,1239.2022664999995,1241.7625835,olifant,geluiden,,stampen,0
57,109.67526219999945,958.8970541999997,none,1,1244.1066504,1246.4885980999998,1251.0713083,1253.8143371999995,boos,geluiden,,zuchten,0
57,109.67526219999945,958.8970541999997,none,1,1253.8493264999997,1255.8077241,1259.3668658999995,1262.8074301999995,heet,geluiden,,blazen,0
57,109.67526219999945,958.8970541999997,none,1,1262.8424116999995,1264.3920141999997,1268.6681311000002,1271.2836724999997,man,geluiden,,zoemen,0
57,109.67526219999945,958.8970541999997,none,1,1271.318695,1273.5934547999996,1277.4998424999994,1280.1520363,dik,geluiden,,hakken,0
57,109.67526219999945,958.8970541999997,none,1,1280.1951355,1282.290075,1285.9685291999995,1288.7528486,kauwen,geluiden,,kauwen,1
57,109.67526219999945,958.8970541999997,none,1,1288.7962214999998,1290.6527476,1294.0154199999997,1297.4040591000003,grommen,geluiden,,tijger,0
57,109.67526219999945,958.8970541999997,none,1,1297.4390544999997,1299.3956866999997,1303.8916542999996,1308.5235396999997,staan,geluiden,,strooien,0
