ID,exp_start,block_start,practice,cycle,display_start,trial_start,trial_end,RT,word,modality,correction,answer,points
59,23.942763200000172,599.4453886000001,practice,0,699.7346629000003,716.9165728000003,721.9848131000003,738.4471834000001,bloem,combinatie,,vuur,0
59,23.942763200000172,599.4453886000001,practice,0,738.4987151,744.7003342000003,749.5475418000001,753.9578295000001,olifant,combinatie,,olifant,0
59,23.942763200000172,599.4453886000001,none,0,760.1939282000003,763.1069507000002,769.0300155,784.5041610000003,berg,combinatie,,bom,0
59,23.942763200000172,599.4453886000001,none,0,784.5390354000001,787.4815613000001,790.9048922000002,795.1973931000002,niet,combinatie,,nee,0
59,23.942763200000172,599.4453886000001,none,0,795.2407401,801.8271333000002,806.3751265000001,812.4333605000002,dik,combinatie,,grote buik,0
59,23.942763200000172,599.4453886000001,none,0,812.4765767000004,816.4297670000001,822.0665060000001,825.1350064000003,verbranden,combinatie,,schreeuw,0
59,23.942763200000172,599.4453886000001,none,0,825.16984,831.9442987000002,836.6852312999999,839.8457607,geven,combinatie,,iets geven,0
59,23.942763200000172,599.4453886000001,none,0,839.8886953000001,842.2728631,846.1412368000001,855.2229875000003,grommen,combinatie,,iemand laten schrikken,0
59,23.942763200000172,599.4453886000001,none,0,855.2577566,872.1870746,875.3767296000001,879.3354214000001,springen,combinatie,,verbazing,0
59,23.942763200000172,599.4453886000001,practice,1,978.1924709,984.3358759000002,988.8161032000003,993.3934167000002,snijden,combinatie,,snijden,0
59,23.942763200000172,599.4453886000001,practice,1,993.4452722000001,999.5386095000003,1004.5457811000001,1007.8621919000002,leeg,combinatie,,verrassing,0
59,23.942763200000172,599.4453886000001,none,1,1013.1982385000001,1016.5609038000002,1020.2723529,1024.0230695,regen,combinatie,,regen,1
59,23.942763200000172,599.4453886000001,none,1,1024.0579004,1026.2880555000002,1030.1503958000003,1032.1574351,verdrietig,combinatie,,huilen,0
59,23.942763200000172,599.4453886000001,none,1,1032.2008784,1036.6897935000002,1041.5640700000004,1044.0259370000003,ziek,combinatie,,hoesten,0
59,23.942763200000172,599.4453886000001,none,1,1044.0608161,1052.2337394,1058.3396079,1060.5130078000002,stil,combinatie,,stilte,0
59,23.942763200000172,599.4453886000001,none,1,1060.5461649000003,1071.7458182,1075.7170746000002,1078.5810569,klein,combinatie,,schattig,0
59,23.942763200000172,599.4453886000001,none,1,1078.6163193000002,1082.9402064,1088.0452055,1089.9659496,eten,combinatie,,eten,1
59,23.942763200000172,599.4453886000001,none,1,1090.0094147,1095.4643037,1099.5822918000003,1104.3355298000001,slapen,combinatie,,slapen,1
59,23.942763200000172,1107.2785469,practice,0,1203.2260600000004,1207.8898436000004,1212.8575499000003,1215.5930410000005,gek,geluiden,,vies,0
59,23.942763200000172,1107.2785469,practice,0,1215.6362151999997,1219.8470196000003,1225.8405957999998,1228.9865602000004,knippen,geluiden,,knippen,0
59,23.942763200000172,1107.2785469,none,0,1255.4084926,1258.4054206000005,1262.7188422000004,1271.4678868000005,zoemen,geluiden,,bij,0
59,23.942763200000172,1107.2785469,none,0,1271.5112779000006,1275.1176027000006,1280.1675109000003,1302.689229,walgen,geluiden,,walging,0
59,23.942763200000172,1107.2785469,none,0,1302.7240686999999,1311.6267702,1314.2938541999997,1320.7834515,goed,geluiden,,nadenken,0
59,23.942763200000172,1107.2785469,none,0,1320.8185272000005,1326.4803506000003,1329.9925419000006,1332.0768594000006,blazen,geluiden,,wind,0
59,23.942763200000172,1107.2785469,none,0,1332.1204088,1353.2579028000005,1356.5028511000005,1362.4979986000003,slaan,geluiden,,slaan,1
59,23.942763200000172,1107.2785469,none,0,1362.5414256999998,1369.0953274999997,1373.1077479,1381.2598794,rennen,geluiden,,bellen,0
59,23.942763200000172,1107.2785469,none,0,1381.2939277,1385.1481299000002,1390.6311626000002,1393.6948207,kotsen,geluiden,,kotsen,1
59,23.942763200000172,1107.2785469,practice,1,1461.0559549000004,1466.4561545000001,1471.2934981000003,1475.7566157000006,koken,geluiden,,plassen,0
59,23.942763200000172,1107.2785469,practice,1,1475.7995385,1481.0354328999997,1484.7623286000003,1486.4079937000001,rijk,geluiden,,geld,0
59,23.942763200000172,1107.2785469,none,1,1490.1768302000005,1493.547172,1496.8763774000004,1499.1601020000003,kat,geluiden,,poes,0
59,23.942763200000172,1107.2785469,none,1,1499.2033176,1503.5859067000006,1507.7468136000002,1512.2868104000004,vis,geluiden,,druppelen,0
59,23.942763200000172,1107.2785469,none,1,1512.3297183,1518.0788525000003,1522.1055892999998,1528.3558502,staart,geluiden,,wind,0
59,23.942763200000172,1107.2785469,none,1,1528.3991964000002,1532.1545410000003,1537.0208236000003,1544.433431,huilen,geluiden,,baby,0
59,23.942763200000172,1107.2785469,none,1,1544.4680103000005,1563.8003792000004,1569.2657331000005,1570.9955523000003,vallen,geluiden,,paard,0
59,23.942763200000172,1107.2785469,none,1,1571.0304661000005,1576.2698514999997,1580.5706936000001,1584.1642502999998,likken,geluiden,,likken,1
59,23.942763200000172,1107.2785469,none,1,1584.1999145000004,1587.2484866,1592.5122080000006,1595.5158530000003,wind,geluiden,,waaien,0
59,23.942763200000172,1612.2619337,practice,0,1714.0431897000003,1715.253679,1720.6064593000006,1726.1769547999997,haasten,gebaren,,laat,0
59,23.942763200000172,1612.2619337,practice,0,1726.2199120999999,1729.2215336000004,1732.5469607,1735.1699199999998,dansen,gebaren,,dansen,0
59,23.942763200000172,1612.2619337,none,0,1737.1550296,1741.9700904000006,1746.5194180000003,1749.8553134999997,kind,gebaren,,klein,0
59,23.942763200000172,1612.2619337,none,0,1749.8903104000005,1752.9916577,1757.0764891000003,1766.4661659999997,misschien,gebaren,,misschien,1
59,23.942763200000172,1612.2619337,none,0,1766.5093650000003,1769.8896926000002,1773.9186448000005,1778.6430099000004,oud,gebaren,,oudere,0
59,23.942763200000172,1612.2619337,none,0,1778.6858064000003,1783.2211364999998,1790.2579067000001,1792.9867688999998,kauwen,gebaren,,praten,0
59,23.942763200000172,1612.2619337,none,0,1793.0299836,1797.6640887999997,1804.0353175000005,1808.9557817999998,jagen,gebaren,,schieten,0
59,23.942763200000172,1612.2619337,none,0,1808.9987484999997,1813.0075522000002,1819.3239545000001,1821.7245131000004,ruiken,gebaren,,ruiken,1
59,23.942763200000172,1612.2619337,none,0,1821.7595844000002,1825.0290361000002,1828.4617463999998,1830.9008497,zwemmen,gebaren,,zwemmen,1
59,23.942763200000172,1612.2619337,practice,1,1881.0683376000002,1884.9464223,1890.2828611999998,1893.1683699999999,auto,gebaren,,autorijden,0
59,23.942763200000172,1612.2619337,practice,1,1893.2117099000002,1898.1987556999998,1904.4559888,1906.8286664000002,comfortabel,gebaren,,luieren,0
59,23.942763200000172,1612.2619337,none,1,1911.2640671000004,1917.6532432999998,1924.1599237000005,1929.7905803999997,ik,gebaren,,ik,1
59,23.942763200000172,1612.2619337,none,1,1929.8335389999997,1933.3185632999998,1938.6910184000003,1940.2336750999998,boos,gebaren,,boos,1
59,23.942763200000172,1612.2619337,none,1,1940.2769018000004,1945.3318642999998,1952.8692641000002,1960.9285485000005,luidruchtig,gebaren,,roepen,0
59,23.942763200000172,1612.2619337,none,1,1960.9631226000006,1965.3152504000004,1972.14752,1973.7893654000004,zuur,gebaren,,zuur,1
59,23.942763200000172,1612.2619337,none,1,1973.8316676,1988.8222835000001,1996.6146572000002,2002.4433604,onweer,gebaren,,kwal,0
59,23.942763200000172,1612.2619337,none,1,2002.4858595,2007.6557036999998,2012.6294570000005,2015.6448095,vechten,gebaren,,vechten,1
59,23.942763200000172,1612.2619337,none,1,2015.6796564,2026.0455509999997,2034.6436595999999,2038.6149344,zuigen,gebaren,,lolly,0
