ID,exp_start,block_start,practice,cycle,display_start,trial_start,trial_end,RT,word,modality,correction,answer,points
69,11.167645799999718,49.33960449999995,practice,0,115.32455479999999,133.08926059999976,139.0789933000001,142.46041809999997,fiets,gebaren,0,motor rijden,0
69,11.167645799999718,49.33960449999995,practice,0,148.01352559999987,150.53261840000005,156.0405399000001,169.4894092999998,fiets,gebaren,1,sporten,0
69,11.167645799999718,49.33960449999995,practice,0,176.93355699999984,179.20947419999993,188.0023053,196.68502249999983,fiets,gebaren,2,paardrijden,0
69,11.167645799999718,49.33960449999995,practice,0,202.61213589999988,207.37813019999976,212.38379959999975,213.67090879999978,bal,gebaren,0,cirkel,0
69,11.167645799999718,49.33960449999995,practice,0,217.44779179999978,226.4716714000001,230.37066509999977,233.20702989999972,bal,gebaren,1,rondje,0
69,11.167645799999718,49.33960449999995,practice,0,238.48452420000012,243.1784877,247.38287839999975,249.30952149999985,bal,gebaren,2,bal,0
69,11.167645799999718,49.33960449999995,none,0,252.2111374000001,288.30648770000016,296.2092514000001,297.691644,kind,gebaren,0,baby,0
69,11.167645799999718,49.33960449999995,none,0,303.41109210000013,307.63579930000014,312.4583398999998,315.5776062,kind,gebaren,1,kleuter,0
69,11.167645799999718,49.33960449999995,none,0,321.05500919999986,322.9830928000001,331.01088089999985,334.5803754999997,kind,gebaren,2,kind,0.5
69,11.167645799999718,49.33960449999995,none,0,335.59868400000005,344.90351699999974,351.5149397,354.29161399999975,berg,gebaren,0,boom,0
69,11.167645799999718,49.33960449999995,none,0,358.68561980000004,365.2881779999998,371.3101025000001,396.8978112,berg,gebaren,1,groot,0
69,11.167645799999718,49.33960449999995,none,0,403.5837883999998,406.8054658000001,413.90200760000016,417.99251619999995,berg,gebaren,2,bergen,0.5
69,11.167645799999718,49.33960449999995,none,0,422.4034837999998,427.0275474,430.49545279999984,432.1445085999999,verdrietig,gebaren,0,huilen,0
69,11.167645799999718,49.33960449999995,none,0,437.0969448000001,438.6961074999999,442.40728480000007,447.6135359,verdrietig,gebaren,1,verdrietig ,1
69,11.167645799999718,49.33960449999995,none,0,450.74945130000015,452.9676596999998,457.1734514999998,459.35780399999976,drinken,gebaren,0,drinken,2
69,11.167645799999718,49.33960449999995,none,0,460.0667046999997,464.83659409999973,467.77288510000017,469.08339609999985,grommen,gebaren,0,boos,0
69,11.167645799999718,49.33960449999995,none,0,472.3687946,474.70058040000004,477.6847330999999,494.16246490000003,grommen,gebaren,1,frustratie,0
69,11.167645799999718,49.33960449999995,none,0,500.19024649999983,501.54145070000004,505.4551507000001,508.8811218999999,grommen,gebaren,2,kat,0
69,11.167645799999718,49.33960449999995,none,0,517.5008997999998,520.9605271999999,524.7263935000001,526.9176545,springen,gebaren,0,skieen,0
69,11.167645799999718,49.33960449999995,none,0,531.2361627999999,532.4302669999997,537.5955153999998,541.7029523000001,springen,gebaren,1,springen,1
69,11.167645799999718,49.33960449999995,none,0,542.4711425999999,545.9783637999999,549.9978157999999,551.2956504999997,ruiken,gebaren,0,ruiken,2
69,11.167645799999718,49.33960449999995,practice,1,586.1356062,588.4599530999999,592.6513682999998,598.0776034,zwaaien,gebaren,0,zwaaien,0
69,11.167645799999718,49.33960449999995,practice,1,599.0956080999999,600.8619809000002,608.3680226000001,610.7712987999998,geheim,gebaren,0,stil,0
69,11.167645799999718,49.33960449999995,practice,1,614.6316785999998,615.4964488999999,624.2598861000001,627.8577331000001,geheim,gebaren,1,luisteren,0
69,11.167645799999718,49.33960449999995,practice,1,632.2256603000001,633.9743712,643.7104693000001,671.7304267999998,geheim,gebaren,2,stilte,0
69,11.167645799999718,49.33960449999995,none,1,679.6246163999999,680.9601367,684.2550090999998,686.8823066999998,ik,gebaren,0,ik,2
69,11.167645799999718,49.33960449999995,none,1,687.5921776,689.5320467000001,692.9876196,704.8850213999999,boos,gebaren,0,agressief,0
69,11.167645799999718,49.33960449999995,none,1,708.9623357,709.2913428000002,715.0726003999998,717.7701913999999,boos,gebaren,1,boos,1
69,11.167645799999718,49.33960449999995,none,1,718.4217032000001,722.7347500999999,733.7689795000001,736.2896070000002,ei,gebaren,0,kuiken,0
69,11.167645799999718,49.33960449999995,none,1,740.7333721999998,741.8054352999998,749.6424621000001,750.8100633999998,ei,gebaren,1,ei,1
69,11.167645799999718,49.33960449999995,none,1,751.3769044000001,753.4495950999999,757.7795719999999,766.9528528000001,goed,gebaren,0,aanmoedigen,0
69,11.167645799999718,49.33960449999995,none,1,771.004246,772.4553276000001,774.9603846,778.9292006999999,goed,gebaren,1,goed,1
69,11.167645799999718,49.33960449999995,none,1,779.6473836999999,781.6295483999997,787.0493054999997,797.9736251999998,sterk,gebaren,0,gespierd,0
69,11.167645799999718,49.33960449999995,none,1,803.0344703000001,803.5989704999997,811.1717146000001,812.8759046999999,sterk,gebaren,1,sterk,1
69,11.167645799999718,49.33960449999995,none,1,813.4438676,815.2799605999999,819.9341442,825.5026296999999,blazen,gebaren,0,blazen,2
69,11.167645799999718,49.33960449999995,none,1,826.1711744999998,827.8032503,833.1110451,837.0543349999998,fluisteren,gebaren,0,fluisteren,2
69,11.167645799999718,846.1740768,practice,0,892.1720227000001,896.448367,901.0222847999999,902.7891469000001,telefoon,combinatie,0,bellen,0
69,11.167645799999718,846.1740768,practice,0,907.182789,909.6350861000001,914.0987541999998,916.3910995000001,telefoon,combinatie,1,telefoon,0
69,11.167645799999718,846.1740768,practice,0,916.9590586999998,921.4568768999998,926.0371587,930.1348434000001,vliegtuig,combinatie,0,vliegtuig,0
69,11.167645799999718,846.1740768,none,0,934.5036286,937.4870326,940.5389173999997,941.6615480999999,walgen,combinatie,0,vies,0
69,11.167645799999718,846.1740768,none,0,945.5720971000001,947.4960482000001,950.7913943999997,971.4243065999999,walgen,combinatie,1,goor,0
69,11.167645799999718,846.1740768,none,0,978.4354371999998,980.0797973999997,984.4430130999999,1005.3375308,walgen,combinatie,2,misselijk,0
69,11.167645799999718,846.1740768,none,0,1012.632212,1027.5445234999997,1032.3377452,1042.7097330000001,ver,combinatie,0,kijken,0
69,11.167645799999718,846.1740768,none,0,1048.9958261000002,1064.6799808,1071.7774392999995,1074.9061713999995,ver,combinatie,1,herkennen,0
69,11.167645799999718,846.1740768,none,0,1081.9755633999998,1097.1299265000002,1102.2342526999996,1104.6021499000003,ver,combinatie,2,afstand,0
69,11.167645799999718,846.1740768,none,0,1111.1214611,1118.5263291999995,1123.2679424000003,1125.7803866,vuur,combinatie,0,vuur,2
69,11.167645799999718,846.1740768,none,0,1126.4568688000004,1134.6103503999998,1138.4104406000001,1139.9824316999998,oud,combinatie,0,oud,2
69,11.167645799999718,846.1740768,none,0,1140.6005401999996,1143.2776337,1150.3195418,1152.0010811999996,scherp,combinatie,0,snijden,0
69,11.167645799999718,846.1740768,none,0,1156.0861539000002,1157.7229149,1161.2101925000002,1167.3028988,scherp,combinatie,1,snee,0
69,11.167645799999718,846.1740768,none,0,1173.7054888999996,1177.8186121000003,1182.9695030999997,1200.7246268000004,scherp,combinatie,2,koken,0
69,11.167645799999718,846.1740768,none,0,1207.8607845000001,1211.183074,1215.3838435000002,1221.9282121,horen,combinatie,0,luisteren,0
69,11.167645799999718,846.1740768,none,0,1226.0305035999995,1227.7969449999996,1231.3783202,1232.9962778000004,horen,combinatie,1,begrijpen,0
69,11.167645799999718,846.1740768,none,0,1236.1230674000003,1241.239048,1245.0942672999995,1246.5647183999995,horen,combinatie,2,hummen,0
69,11.167645799999718,846.1740768,none,0,1250.3085993999998,1255.1922172999998,1258.5519032999996,1260.5168884,staan,combinatie,0,jurk,0
69,11.167645799999718,846.1740768,none,0,1264.2193026,1266.3756627999996,1271.0139025000003,1279.853009,staan,combinatie,1,aanmoedigen,0
69,11.167645799999718,846.1740768,none,0,1283.7807664999996,1285.4451551999996,1290.1633882,1293.1465824000002,staan,combinatie,2,sterk,0
69,11.167645799999718,846.1740768,practice,1,1332.4624011,1337.5310389,1344.8671087999996,1349.8049315000003,eend,combinatie,0,kip,0
69,11.167645799999718,846.1740768,practice,1,1354.2741754000003,1355.5357915,1368.0615977000002,1377.0512228000002,eend,combinatie,1,meeuw,0
69,11.167645799999718,846.1740768,practice,1,1381.2787486000002,1384.1303812,1395.9111614999997,1407.9551540999996,eend,combinatie,2,pinguin,0
69,11.167645799999718,846.1740768,practice,1,1414.1246416,1416.0127666000003,1419.6106355999996,1422.2072317999996,glimlach,combinatie,0,lachen,0
69,11.167645799999718,846.1740768,practice,1,1425.4095475999998,1426.2542915999998,1430.9951325999996,1435.2011189999998,glimlach,combinatie,1,glimlach,0
69,11.167645799999718,846.1740768,none,1,1437.8358796999996,1439.3636030000002,1446.2722409000003,1449.2446876,zwaar,combinatie,0,uitgeput,0
69,11.167645799999718,846.1740768,none,1,1452.5216935000003,1453.1974167000003,1462.3897688000002,1491.7187595,zwaar,combinatie,1,zwaar,1
69,11.167645799999718,846.1740768,none,1,1493.8277967999998,1496.6356048000002,1502.5920347999995,1505.2446163,bliksem,combinatie,0,vuurwerk,0
69,11.167645799999718,846.1740768,none,1,1508.7302984000003,1509.4701312000002,1521.5513648,1524.5391859999995,bliksem,combinatie,1,explosie,0
69,11.167645799999718,846.1740768,none,1,1527.5996251000001,1529.3620711999997,1535.7855470999998,1542.7334476,bliksem,combinatie,2,bom,0
69,11.167645799999718,846.1740768,none,1,1548.8360086999996,1550.3782964999996,1557.2518084999997,1559.0692550999997,kauwen,combinatie,0,kauwen,2
69,11.167645799999718,846.1740768,none,1,1560.2963294999995,1562.9263047,1566.6236914999995,1568.6126278999996,vallen,combinatie,0,vallen,2
69,11.167645799999718,846.1740768,none,1,1569.1306025,1573.2130859000004,1579.9906951999997,1581.9228172999997,vliegen,combinatie,0,vliegen,2
69,11.167645799999718,846.1740768,none,1,1582.5159811999997,1584.6526345999996,1589.5757941999996,1593.1409454,jagen,combinatie,0,schieten,0
69,11.167645799999718,846.1740768,none,1,1596.5096412999997,1597.9582280999998,1604.4170057999995,1608.5681932000002,jagen,combinatie,1,afvuren,0
69,11.167645799999718,846.1740768,none,1,1613.8793203,1614.9661633,1628.6194742000002,1648.8908877,jagen,combinatie,2,neerschieten,0
69,11.167645799999718,846.1740768,none,1,1653.6679638,1655.0845443000003,1659.7472254999998,1661.3675558,slapen,combinatie,0,slapen,2
69,11.167645799999718,1665.2278824,practice,0,1700.0412855999998,1703.0209192999996,1706.7816345999995,1709.2246371999995,zingen,geluiden,0,zingen,0
69,11.167645799999718,1665.2278824,practice,0,1709.734637,1713.0206230999997,1717.9700957,1720.3096959999998,klok,geluiden,0,tijd,0
69,11.167645799999718,1665.2278824,practice,0,1724.7866038999996,1725.4401347999997,1730.8037775999996,1731.9529348,klok,geluiden,1,klok,0
69,11.167645799999718,1665.2278824,none,0,1735.8133788999999,1737.9446746999997,1741.9038437000004,1742.9046291999998,vlieg,geluiden,0,bij,0
69,11.167645799999718,1665.2278824,none,0,1747.8573542999998,1749.4818367000003,1754.6576702999996,1755.7986668999997,vlieg,geluiden,1,wesp,0
69,11.167645799999718,1665.2278824,none,0,1760.7841112,1764.0354673999996,1767.9444423,1769.742135,vlieg,geluiden,2,bromvlieg,0.5
69,11.167645799999718,1665.2278824,none,0,1773.6526920000001,1781.9723815000002,1785.9046831,1790.6200555,man,geluiden,0,hummen,0
69,11.167645799999718,1665.2278824,none,0,1796.1221760000003,1804.2682332999998,1808.6036135,1810.8480461000004,man,geluiden,1,begroeten,0
69,11.167645799999718,1665.2278824,none,0,1816.7255707999998,1818.2898592999995,1822.9770197000003,1837.8019532000003,man,geluiden,2,herkennen,0
69,11.167645799999718,1665.2278824,none,0,1846.2967695000002,1849.976569,1853.6918396999995,1856.3297586000003,geur,geluiden,0,ruiken,0
69,11.167645799999718,1665.2278824,none,0,1860.1071711999998,1861.1468363,1864.8623291,1866.5729139,geur,geluiden,1,snuiven,0
69,11.167645799999718,1665.2278824,none,0,1870.0001190999997,1871.7008370999997,1876.2929775999996,1878.458064,geur,geluiden,2,genieten,0
69,11.167645799999718,1665.2278824,none,0,1882.5269084999995,1885.9432199999997,1889.0311201999998,1891.9933403999999,piepen,geluiden,0,auto,0
69,11.167645799999718,1665.2278824,none,0,1895.2374501,1896.5486495999999,1900.2585579000001,1901.7948244000004,piepen,geluiden,1,kapot,0
69,11.167645799999718,1665.2278824,none,0,1905.8384730000002,1908.2811822999997,1911.8506203000002,1923.8730732,piepen,geluiden,2,alarm,0
69,11.167645799999718,1665.2278824,none,0,1928.5084388,1930.6975672000003,1934.7909529000003,1938.6668009,bijten,geluiden,0,tongen,0
69,11.167645799999718,1665.2278824,none,0,1943.16142,1943.9632977999995,1947.9766115999996,1950.4688977,bijten,geluiden,1,tikken,0
69,11.167645799999718,1665.2278824,none,0,1954.3374749999998,1955.7127809999997,1959.4665920000002,1969.0798186999996,bijten,geluiden,2,gehemelte,0
69,11.167645799999718,1665.2278824,none,0,1972.8404297000002,1975.3311608999998,1979.6180020999996,1982.5816882000004,ademen,geluiden,0,ademenen,2
69,11.167645799999718,1665.2278824,none,0,1986.3011115000004,1989.9441892,1992.8793873,1995.8919952,vechten,geluiden,0,boksen,0
69,11.167645799999718,1665.2278824,none,0,1999.1021055999995,2000.7476749000002,2003.9966240999997,2005.2941386999996,vechten,geluiden,1,slaan,0
69,11.167645799999718,1665.2278824,none,0,2008.4874266000002,2009.4835527999999,2013.2820944,2019.3453916000003,vechten,geluiden,2,vechten,0.5
69,11.167645799999718,1665.2278824,practice,1,2047.9179022000003,2049.7693226999995,2054.3966883,2056.4684033999997,juichen,geluiden,0,juichen,0
69,11.167645799999718,1665.2278824,practice,1,2058.7109623,2059.9200001000004,2072.4810867,2075.2204477,sneeuw,geluiden,0,opblazen,0
69,11.167645799999718,1665.2278824,practice,1,2081.4646037999996,2082.9088235000004,2092.9580478000003,2095.4148234,sneeuw,geluiden,1,bibberen,0
69,11.167645799999718,1665.2278824,practice,1,2102.3336059,2103.3679538,2111.2222534999996,2112.8927562000003,sneeuw,geluiden,2,koud,0
69,11.167645799999718,1665.2278824,none,1,2121.7706082,2123.4287105999997,2127.7039705,2129.7201386,snel,geluiden,0,wind,0
69,11.167645799999718,1665.2278824,none,1,2133.7888037999996,2134.7835505,2140.6220203,2143.3730302999998,snel,geluiden,1,waaien,0
69,11.167645799999718,1665.2278824,none,1,2146.2493231000003,2147.946641,2155.4083294999996,2157.3741408,snel,geluiden,2,snel,0.5
69,11.167645799999718,1665.2278824,none,1,2158.2176961,2160.8392626,2165.1722949,2184.2622263999997,vrouw,geluiden,0,fijn,0
69,11.167645799999718,1665.2278824,none,1,2187.8384951000003,2188.9674111,2192.8758614000003,2195.9631856,vrouw,geluiden,1,giechelen,0
69,11.167645799999718,1665.2278824,none,1,2201.065373,2202.1196422999997,2206.7585799000003,2217.5661515999996,vrouw,geluiden,2,flirten,0
69,11.167645799999718,1665.2278824,none,1,2221.7773611999996,2224.6329858000004,2229.4929618,2232.5350114,misschien,geluiden,0,twijfelen,0
69,11.167645799999718,1665.2278824,none,1,2236.5873085999997,2237.6146378999997,2242.3939761999995,2244.4369395999997,misschien,geluiden,1,denken,0
69,11.167645799999718,1665.2278824,none,1,2248.5812493,2250.8599720999996,2256.1125718999997,2261.931261,misschien,geluiden,2,kiezen,0
69,11.167645799999718,1665.2278824,none,1,2266.8005833,2268.3918779,2272.1101932999995,2274.4081380000002,niet,geluiden,0,nee,0
69,11.167645799999718,1665.2278824,none,1,2279.1769902,2280.0721683999996,2283.4584480999997,2288.8268906999997,niet,geluiden,1,tegenhouden,0
69,11.167645799999718,1665.2278824,none,1,2292.054109,2297.4247457999995,2300.9552769999996,2315.8974360999996,niet,geluiden,2,niet,0.5
69,11.167645799999718,1665.2278824,none,1,2317.2324519,2320.3724484,2324.1001484000003,2328.9578417999996,zuur,geluiden,0,wind,0
69,11.167645799999718,1665.2278824,none,1,2331.9183113000004,2333.1151701000003,2336.8733502,2339.9687517999996,zuur,geluiden,1,rilling,0
69,11.167645799999718,1665.2278824,none,1,2343.2950641,2344.6274203999997,2349.3446159,2362.704343,zuur,geluiden,2,mislukken,0
69,11.167645799999718,1665.2278824,none,1,2366.2820949,2378.887499,2385.5876551999995,2388.7747858999996,dik,geluiden,0,volzitten,0
69,11.167645799999718,1665.2278824,none,1,2395.0108279,2396.1349889999997,2400.5859481,2402.6603609,dik,geluiden,1,misselijk,0
69,11.167645799999718,1665.2278824,none,1,2411.7385922999997,2419.7648117000003,2425.1111223000003,2427.5389886999997,dik,geluiden,2,uitgeteld,0
69,11.167645799999718,1665.2278824,none,1,2431.8580104,2433.8510386000003,2436.1363963,2438.7999635,lachen,geluiden,0,lachen,2
