ID,exp_start,block_start,practice,cycle,display_start,trial_start,trial_end,RT,word,modality,correction,answer,points
6,303.6571578000003,311.30996349999987,practice,0,360.6003148,365.04155379999975,372.2653554999997,374.13481909999973,zingen,geluiden,0,zingen,0
6,303.6571578000003,311.30996349999987,practice,0,375.83598900000015,380.77617550000014,387.30670780000037,389.1115539000002,zwaaien,geluiden,0,lachen,0
6,303.6571578000003,311.30996349999987,practice,0,392.88868600000023,396.586851,401.96765250000044,407.5474703,zwaaien,geluiden,1,uitlachen,0
6,303.6571578000003,311.30996349999987,practice,0,410.6413063,414.27229739999984,422.3646869000004,429.2508179000006,zwaaien,geluiden,2,toon,0
6,303.6571578000003,311.30996349999987,none,0,437.7619818000003,441.6740073000001,445.99189560000013,448.73684070000036,hoog,geluiden,0,opwinding,0
6,303.6571578000003,311.30996349999987,none,0,452.8393313000006,461.6690137000005,469.1021679000005,472.2236945000004,hoog,geluiden,1,kijken,0
6,303.6571578000003,311.30996349999987,none,0,476.72629229999984,488.67579320000004,497.02696300000025,507.1788784999999,hoog,geluiden,2,indruk,0
6,303.6571578000003,311.30996349999987,none,0,510.2393376,514.3068887,520.9678547000003,523.4647142000003,bliksem,geluiden,0,breken,0
6,303.6571578000003,311.30996349999987,none,0,527.8340797999999,528.7887065000004,538.8552781999997,544.7510426999997,bliksem,geluiden,1,vuurwerk,0
6,303.6571578000003,311.30996349999987,none,0,548.1617881000002,560.3021785000001,576.9882318,581.9067406000004,bliksem,geluiden,2,bliksem,0.5
6,303.6571578000003,311.30996349999987,none,0,583.2420345999999,586.5755937000004,593.1831541000001,594.9252529000005,verdrietig,geluiden,0,huilen,0
6,303.6571578000003,311.30996349999987,none,0,597.5774581000005,599.6422694000003,605.5178867000004,607.4356002000004,verdrietig,geluiden,1,tranen,0
6,303.6571578000003,311.30996349999987,none,0,610.5876470000003,611.698934,622.2117812000006,626.3305319000001,verdrietig,geluiden,2,teleurstelling,0
6,303.6571578000003,311.30996349999987,none,0,629.8823653999998,633.8453959999997,637.1846551999997,644.9327806000001,bang,geluiden,0,schrikken,0
6,303.6571578000003,311.30996349999987,none,0,648.5767599000001,659.1315463000001,660.8777563000003,664.0605362000006,bang,geluiden,1,spoken,0
6,303.6571578000003,311.30996349999987,none,0,668.3210794000006,668.7490377000004,679.5071589999998,682.1548658000002,bang,geluiden,2,griezelen,0
6,303.6571578000003,311.30996349999987,none,0,686.1156605000006,700.6486961,716.5082819999998,721.7274084000001,staart,geluiden,0,verwarring,0
6,303.6571578000003,311.30996349999987,none,0,724.4213648000004,741.9761220999999,756.0821292999999,758.8830564,staart,geluiden,1,vraag,0
6,303.6571578000003,311.30996349999987,none,0,762.3522854000003,775.9225658000005,783.0465949,787.2956279999999,staart,geluiden,2,zoeken,0
6,303.6571578000003,311.30996349999987,none,0,790.5561206000002,794.5515875000001,803.6461022000003,807.4160418000001,vechten,geluiden,0,vuurwerk,0
6,303.6571578000003,311.30996349999987,none,0,811.5008947000006,812.9632093,820.1180357000003,824.6593887999998,vechten,geluiden,1,afsteken,0
6,303.6571578000003,311.30996349999987,none,0,836.7542825999999,837.5711401999997,851.0013960000006,866.5904941999997,vechten,geluiden,2,nieuwjaar,0
6,303.6571578000003,311.30996349999987,none,0,870.4432180000003,876.0454304000004,882.6864903000005,886.0184608,lopen,geluiden,0,neurieen,0
6,303.6571578000003,311.30996349999987,none,0,889.7037748000002,891.6082256999998,895.4547401,898.0036053000003,lopen,geluiden,1,fanfare,0
6,303.6571578000003,311.30996349999987,none,0,901.2223586,903.8623339000005,907.4816138000006,921.2904263999999,lopen,geluiden,2,lopen,0.5
6,303.6571578000003,311.30996349999987,practice,1,986.2931206000003,991.7082437999998,998.0221529999999,1006.5780661999997,geheim,geluiden,0,luisteren,0
6,303.6571578000003,311.30996349999987,practice,1,1009.9719826,1012.1101478999999,1017.4313122000003,1018.9714657000004,geheim,geluiden,1,fluisteren,0
6,303.6571578000003,311.30996349999987,practice,1,1022.6321624000002,1026.7796826000003,1034.3455189000006,1035.6999105000004,geheim,geluiden,2,roddelen,0
6,303.6571578000003,311.30996349999987,practice,1,1039.5180339999997,1042.8451239000005,1047.0159531,1055.2269418000005,glimlach,geluiden,0,denken,0
6,303.6571578000003,311.30996349999987,practice,1,1058.4125536000001,1065.7813336,1070.8872226000003,1083.2395278000004,glimlach,geluiden,1,nadenken,0
6,303.6571578000003,311.30996349999987,practice,1,1086.8422508000003,1090.7855621999997,1095.7667636000006,1097.2750463000002,glimlach,geluiden,2,groeten,0
6,303.6571578000003,311.30996349999987,none,1,1105.9527683000006,1112.0317285,1117.8321403999998,1122.8618242000002,vogel,geluiden,0,vleugel,0
6,303.6571578000003,311.30996349999987,none,1,1126.8808952999998,1128.0202115000002,1133.1298789000002,1134.2219982000006,vogel,geluiden,1,vogel,1
6,303.6571578000003,311.30996349999987,none,1,1135.0570652000006,1137.4307780999998,1141.7498240000004,1142.9066211999998,koud,geluiden,0,koud,2
6,303.6571578000003,311.30996349999987,none,1,1143.5748702,1150.9600194000004,1158.2158589,1159.3506091,vuur,geluiden,0,wind,0
6,303.6571578000003,311.30996349999987,none,1,1163.3366109999997,1172.3228765000003,1177.8225982000004,1183.4292067000006,vuur,geluiden,1,waaien,0
6,303.6571578000003,311.30996349999987,none,1,1187.5564562999998,1188.8672771000001,1194.9618424999999,1223.0518665999998,vuur,geluiden,2,storm,0
6,303.6571578000003,311.30996349999987,none,1,1227.1458401,1232.4599334000004,1239.2136749000001,1244.2799892000003,luidruchtig,geluiden,0,juichen,0
6,303.6571578000003,311.30996349999987,none,1,1247.6987942000005,1254.2126327000005,1262.4382968999998,1263.4829550000004,luidruchtig,geluiden,1,praten,0
6,303.6571578000003,311.30996349999987,none,1,1268.6602307000003,1269.5938713000005,1276.9158857000002,1278.326658,luidruchtig,geluiden,2,groeten,0
6,303.6571578000003,311.30996349999987,none,1,1281.8623953000006,1287.6475128000002,1291.8416509999997,1299.7047696,man,geluiden,0,frustratie,0
6,303.6571578000003,311.30996349999987,none,1,1303.0986973,1309.8024179000004,1317.7782214999997,1327.9674406000004,man,geluiden,1,overleggen,0
6,303.6571578000003,311.30996349999987,none,1,1331.8697624000006,1336.9204872,1340.8382921000002,1350.5456906,man,geluiden,2,instemmen,0
6,303.6571578000003,311.30996349999987,none,1,1354.2228046999999,1362.6303273000003,1368.3717435999997,1378.0838308000002,dik,geluiden,0,wandelen,2
6,303.6571578000003,311.30996349999987,none,1,1384.4605896000003,1391.5214204000004,1397.3355822000003,1399.8614641000004,vangen,geluiden,0,scoren,0
6,303.6571578000003,311.30996349999987,none,1,1403.2225847,1405.4003823000003,1411.3131705000005,1412.8803863000003,vangen,geluiden,1,aanmoedigen,0
6,303.6571578000003,311.30996349999987,none,1,1415.7240444999998,1422.0291501000002,1426.7155515000004,1450.3940229999998,vangen,geluiden,2,winnen,0
6,303.6571578000003,1497.5524700000005,practice,0,1544.1255959999999,1545.8701716000005,1553.8804393,1555.5344192000002,fiets,combinatie,0,fietsen,0
6,303.6571578000003,1497.5524700000005,practice,0,1560.0449080999997,1563.6649417999997,1569.0281618999998,1577.9878974000003,fiets,combinatie,1,fietsbel,0
6,303.6571578000003,1497.5524700000005,practice,0,1582.0821010999998,1586.4469985000005,1596.2511532999997,1604.9168389000006,fiets,combinatie,2,inhalen,0
6,303.6571578000003,1497.5524700000005,practice,0,1609.6028355999997,1613.7814783000003,1620.5371182999997,1621.5859402000006,eend,combinatie,0,eend,0
6,303.6571578000003,1497.5524700000005,none,0,1623.9879541,1630.0950259,1641.2602419000004,1644.5727697000002,misschien,combinatie,0,overleggen,0
6,303.6571578000003,1497.5524700000005,none,0,1648.2082182000004,1649.0526446000003,1660.9895058000002,1663.3587011,misschien,combinatie,1,twijfelen,0
6,303.6571578000003,1497.5524700000005,none,0,1666.7692868000004,1670.1435557000004,1680.2067005,1698.9475782999998,misschien,combinatie,2,argument,0
6,303.6571578000003,1497.5524700000005,none,0,1703.2164158000005,1708.4947124999999,1716.5741684000004,1722.2357677999998,geur,combinatie,0,geur,2
6,303.6571578000003,1497.5524700000005,none,0,1723.3360277000002,1738.2069004000004,1745.3244755000005,1747.6971382000002,zout,combinatie,0,peper,0
6,303.6571578000003,1497.5524700000005,none,0,1754.0826539,1756.1819283000004,1762.1407595,1765.7323912000002,zout,combinatie,1,malen,0
6,303.6571578000003,1497.5524700000005,none,0,1771.0101578000003,1775.3260635000006,1786.5537767000005,1795.9623716000006,zout,combinatie,2,kruiden,0
6,303.6571578000003,1497.5524700000005,none,0,1800.0975128999999,1806.0425866000005,1813.2230971999998,1814.9647003,vliegen,combinatie,0,vliegen,2
6,303.6571578000003,1497.5524700000005,none,0,1815.9584347,1817.8147477000002,1822.5639822000003,1824.3994333,lachen,combinatie,0,lachen,2
6,303.6571578000003,1497.5524700000005,none,0,1825.1010316000002,1828.3688321,1833.5091254,1835.1508943,ruiken,combinatie,0,ruiken,2
6,303.6571578000003,1497.5524700000005,none,0,1836.5028334999997,1839.3802686999998,1844.3355603,1852.4703442999999,staan,combinatie,0,niks,0
6,303.6571578000003,1497.5524700000005,none,0,1856.4142005000003,1868.9695180999997,1877.2090841999998,1896.1521827000006,staan,combinatie,1,starten,0
6,303.6571578000003,1497.5524700000005,none,0,1900.4958034,1902.4025738,1911.5096604999999,1912.9797392,staan,combinatie,2,staan,0.5
6,303.6571578000003,1497.5524700000005,practice,1,1976.9650425,1981.1080136,1987.8589870000005,1989.9823876,sneeuw,combinatie,0,regen,0
6,303.6571578000003,1497.5524700000005,practice,1,1993.1511374000002,1995.1186132000003,2002.7205891000003,2005.4938486,sneeuw,combinatie,1,sneeuw,0
6,303.6571578000003,1497.5524700000005,practice,1,2006.5027715000006,2009.0607596,2015.7331746999998,2017.5030914,vliegtuig,combinatie,0,opstijgen,0
6,303.6571578000003,1497.5524700000005,practice,1,2020.3548993000004,2023.6005965000004,2030.5303552000005,2033.2304413000002,vliegtuig,combinatie,1,vliegtuig,0
6,303.6571578000003,1497.5524700000005,none,1,2036.2407514000006,2043.7845599000002,2050.7650848000003,2052.3164644,bitter,combinatie,0,proeven,0
6,303.6571578000003,1497.5524700000005,none,1,2055.5686161000003,2060.0466658000005,2064.9624814999997,2066.3354866,bitter,combinatie,1,bitter,1
6,303.6571578000003,1497.5524700000005,none,1,2067.5449927,2071.5472753000004,2075.2519776999998,2079.0538699999997,dood,combinatie,0,dood,2
6,303.6571578000003,1497.5524700000005,none,1,2079.6471643000004,2083.5092043000004,2088.0348332000003,2091.4640897,blij,combinatie,0,glimlach,0
6,303.6571578000003,1497.5524700000005,none,1,2094.8661416000004,2098.4206843,2104.0928324000006,2108.0921774,blij,combinatie,1,blij,1
6,303.6571578000003,1497.5524700000005,none,1,2108.9094149000002,2113.8808752000004,2120.6667978000005,2121.9687224,zwaar,combinatie,0,zwaar,2
6,303.6571578000003,1497.5524700000005,none,1,2122.5785963,2127.5463865,2131.9345433999997,2136.0788174,zuur,combinatie,0,vies,0
6,303.6571578000003,1497.5524700000005,none,1,2140.0895843,2142.9144266000003,2149.5096914000005,2155.3235071999998,zuur,combinatie,1,proeven,0
6,303.6571578000003,1497.5524700000005,none,1,2158.4927866,2161.7635130999997,2167.8360649000006,2172.8511498,zuur,combinatie,2,smaak,0
6,303.6571578000003,1497.5524700000005,none,1,2175.9529861,2178.7816027999997,2183.5098480000006,2184.9445628000003,eten,combinatie,0,eten,2
6,303.6571578000003,1497.5524700000005,none,1,2185.5710429,2187.6645679000003,2191.4843124,2193.012444,zwemmen,combinatie,0,zwemmen,2
6,303.6571578000003,2219.9928932000003,practice,0,2244.0717638000006,2248.9185008000004,2256.1320868000003,2258.6638284,klok,gebaren,0,klok,0
6,303.6571578000003,2219.9928932000003,practice,0,2259.5322666,2262.2332373,2269.2254155,2270.7324802000003,juichen,gebaren,0,juichen,0
6,303.6571578000003,2219.9928932000003,none,0,2274.8094882000005,2287.7237086000005,2296.8040699000003,2299.3781534,zoemen,gebaren,0,mug,0
6,303.6571578000003,2219.9928932000003,none,0,2302.4634524000003,2313.7911802,2327.3977247000003,2329.316003,zoemen,gebaren,1,vlieg,0
6,303.6571578000003,2219.9928932000003,none,0,2336.8438502,2337.4891062000006,2352.2446193000005,2372.2557136000005,zoemen,gebaren,2,bromvlieg,0
6,303.6571578000003,2219.9928932000003,none,0,2376.9416338,2383.455924,2397.0280202000004,2400.6098271,kind,gebaren,0,baby,0
6,303.6571578000003,2219.9928932000003,none,0,2405.1623973000005,2420.1423365,2436.2515184000004,2438.166212,kind,gebaren,1,kleuter,0
6,303.6571578000003,2219.9928932000003,none,0,2444.7680496000003,2447.0247894000004,2458.4848369,2466.0612688,kind,gebaren,2,kind,0.5
6,303.6571578000003,2219.9928932000003,none,0,2467.0797549999997,2476.2549189,2483.4583601000004,2488.1649395000004,walgen,gebaren,0,afwijzen,0
6,303.6571578000003,2219.9928932000003,none,0,2491.1417988000003,2493.2356247,2502.3229671,2506.9256615000004,walgen,gebaren,1,misselijk,0
6,303.6571578000003,2219.9928932000003,none,0,2510.4778404999997,2513.6066566,2522.6301466000004,2525.3534180000006,walgen,gebaren,2,afkeuren,0
6,303.6571578000003,2219.9928932000003,none,0,2528.7225826000004,2541.7352509,2548.9017461000003,2562.2006594000004,onweer,gebaren,0,landen,0
6,303.6571578000003,2219.9928932000003,none,0,2565.7195053000005,2570.3363287,2585.522551,2608.990704,onweer,gebaren,1,mikken,0
6,303.6571578000003,2219.9928932000003,none,0,2614.0348876,2619.0153876000004,2641.0419999000005,2650.4554636000003,onweer,gebaren,2,blikseminslag,0
6,303.6571578000003,2219.9928932000003,none,0,2655.1828272000002,2660.7380479000003,2670.4284046000002,2674.9006770000005,verbranden,gebaren,0,bezeren,0
6,303.6571578000003,2219.9928932000003,none,0,2678.3444283,2681.5498918000003,2694.5007216000004,2696.8038318999998,verbranden,gebaren,1,verbranden,1
6,303.6571578000003,2219.9928932000003,none,0,2697.7314659000003,2700.1564880000005,2704.790424,2706.4052716000006,geven,gebaren,0,geven,2
6,303.6571578000003,2219.9928932000003,none,0,2707.1985117000004,2709.9071597,2714.5251805,2716.0901177000005,gooien,gebaren,0,gooien,2
6,303.6571578000003,2219.9928932000003,practice,1,2766.9325453,2769.5057770000003,2774.1852440000002,2776.507302,telefoon,gebaren,0,bellen,0
6,303.6571578000003,2219.9928932000003,practice,1,2780.1677724,2782.7196187,2787.1216614000004,2790.5592482,telefoon,gebaren,1,nummer,0
6,303.6571578000003,2219.9928932000003,practice,1,2793.7867240000005,2797.0912591000006,2803.524722,2804.8115976,telefoon,gebaren,2,telefoon,0
6,303.6571578000003,2219.9928932000003,practice,1,2805.4881511000003,2808.8698990000003,2816.0488573000002,2816.8718684000005,bal,gebaren,0,bal,0
6,303.6571578000003,2219.9928932000003,none,1,2819.4403323000006,2822.9492792,2828.9870488000006,2831.5904003000005,hoorn,gebaren,0,hoorn,2
6,303.6571578000003,2219.9928932000003,none,1,2832.3923051,2835.9463153000006,2844.0202617000004,2845.025777,klein,gebaren,0,klein,2
6,303.6571578000003,2219.9928932000003,none,1,2845.6191577,2848.0664274,2852.7883664,2855.8190878000005,zoet,gebaren,0,lekker,0
6,303.6571578000003,2219.9928932000003,none,1,2859.0632717,2862.1267808000002,2872.6653773,2876.388804,zoet,gebaren,1,smaken,0
6,303.6571578000003,2219.9928932000003,none,1,2879.9993794,2883.0206845000002,2893.1533572,2898.3838307000005,zoet,gebaren,2,smaak,0
6,303.6571578000003,2219.9928932000003,none,1,2902.0939319,2905.5453989,2912.0696395000004,2913.1697415999997,huilen,gebaren,0,tranen,0
6,303.6571578000003,2219.9928932000003,none,1,2916.3798017,2918.9196393,2925.0045024,2926.671961,huilen,gebaren,1,huilen,1
6,303.6571578000003,2219.9928932000003,none,1,2927.2144388000006,2930.029128,2934.1796983000004,2937.3406752,zuigen,gebaren,0,duimzuigen,0
6,303.6571578000003,2219.9928932000003,none,1,2940.4162173000004,2942.6806228000005,2948.6016924000005,2960.1180396,zuigen,gebaren,1,proeven,0
6,303.6571578000003,2219.9928932000003,none,1,2962.9950157000003,2963.7620636,2970.8696099999997,2991.2307386,zuigen,gebaren,2,duimen,0
6,303.6571578000003,2219.9928932000003,none,1,2995.1832617,3000.1759153000003,3008.1759776999997,3009.1835231000005,water,gebaren,0,piano,0
6,303.6571578000003,2219.9928932000003,none,1,3013.8941903000004,3019.4725770000005,3031.8392920000006,3052.3233293000003,water,gebaren,1,regenwater,0
6,303.6571578000003,2219.9928932000003,none,1,3057.4837660000003,3062.2611542000004,3073.102022,3079.5188196999998,water,gebaren,2,zwembad,0
6,303.6571578000003,2219.9928932000003,none,1,3083.2463731,3091.3182418000006,3101.1374616000003,3101.8889390000004,wind,gebaren,0,wind,2
