ID,exp_start,block_start,practice,cycle,display_start,trial_start,trial_end,RT,word,modality,correction,answer,points
70,123.29819499999985,127.3247323999999,practice,0,218.71297419999973,233.6157764999998,237.03141939999978,239.58954489999996,glimlach,gebaren,0,lachen,0
70,123.29819499999985,127.3247323999999,practice,0,244.82596999999987,254.15708819999963,258.3304506999998,260.3007983999996,glimlach,gebaren,1,blij,0
70,123.29819499999985,127.3247323999999,practice,0,267.52864759999966,280.3231105,285.2619193999999,289.5887026999999,glimlach,gebaren,2,glimlachen,0
70,123.29819499999985,127.3247323999999,practice,0,294.55762430000004,297.8018184999996,301.03273199999967,303.79905259999987,zwaaien,gebaren,0,zwaaien,0
70,123.29819499999985,127.3247323999999,none,0,306.73424039999963,310.97375269999975,323.18773029999966,324.93593299999975,vuur,gebaren,0,vuur,2
70,123.29819499999985,127.3247323999999,none,0,332.82957959999976,335.27246449999984,342.1551703,344.3388442999999,blij,gebaren,0,blij,2
70,123.29819499999985,127.3247323999999,none,0,345.66456070000004,352.4445601999996,362.73764859999983,364.49997099999973,berg,gebaren,0,huis,0
70,123.29819499999985,127.3247323999999,none,0,369.69370869999966,375.97534369999994,385.23161749999963,386.94454159999987,berg,gebaren,1,berg,1
70,123.29819499999985,127.3247323999999,none,0,387.7298215999999,390.8662755999999,394.6362836999997,396.9709290999999,niet,gebaren,0,stop,0
70,123.29819499999985,127.3247323999999,none,0,400.53954380000005,402.42170699999997,405.6021708999997,422.7585841,niet,gebaren,1,verbieden,0
70,123.29819499999985,127.3247323999999,none,0,428.7776841,440.3283916999999,447.6086083,455.71371299999964,niet,gebaren,2,nee,0
70,123.29819499999985,127.3247323999999,none,0,462.67356249999966,464.80744119999963,469.7661184999997,471.7817654999999,vechten,gebaren,0,vechten,2
70,123.29819499999985,127.3247323999999,none,0,472.3755788999997,482.6788778,486.5326329999998,488.0927646,grommen,gebaren,0,beer,0
70,123.29819499999985,127.3247323999999,none,0,490.5284985999997,493.73872519999986,499.76059339999983,502.15391299999965,grommen,gebaren,1,grommen,1
70,123.29819499999985,127.3247323999999,none,0,502.6549554999997,505.03679999999986,509.7420373,512.1546223,springen,gebaren,0,springen,2
70,123.29819499999985,127.3247323999999,practice,1,561.2969853,564.9706671999998,569.3744099999999,575.8391128999997,sneeuw,gebaren,0,sneeuwen,0
70,123.29819499999985,127.3247323999999,practice,1,580.0491561999997,581.9103166999998,587.0145456,588.9078089,telefoon,gebaren,0,bellen,0
70,123.29819499999985,127.3247323999999,practice,1,592.8346591,594.8596508,598.8290706999996,602.4354881999998,telefoon,gebaren,1,telefoneren,0
70,123.29819499999985,127.3247323999999,practice,1,607.1539731999997,609.8300922999997,613.3130023999997,615.661294,telefoon,gebaren,2,telefoon,0
70,123.29819499999985,127.3247323999999,none,1,617.9051525,626.1486348999997,631.5274291999999,632.5889677,bitter,gebaren,0,vies,0
70,123.29819499999985,127.3247323999999,none,1,635.6410338000001,639.1303364,642.8457739,649.8583254,bitter,gebaren,1,bitter,1
70,123.29819499999985,127.3247323999999,none,1,650.6014510999998,655.8093123999997,659.602097,660.7096420999997,ei,gebaren,0,kip,0
70,123.29819499999985,127.3247323999999,none,1,665.4622581999997,667.2378397999996,671.7960527999999,673.0950186999999,ei,gebaren,1,ei,1
70,123.29819499999985,127.3247323999999,none,1,673.6962251,676.7784195999998,681.5353341,683.2379904999998,zwaar,gebaren,0,zwaar,2
70,123.29819499999985,127.3247323999999,none,1,683.9227661999998,687.4499968999999,690.4518144999997,691.6227055999998,bang,gebaren,0,bang,2
70,123.29819499999985,127.3247323999999,none,1,692.2330035999998,695.3110152999998,700.6955533999999,701.7407079999998,slang,gebaren,0,haai,0
70,123.29819499999985,127.3247323999999,none,1,705.1177405999997,709.3159837999997,714.5163877,716.6347093999998,slang,gebaren,1,slang,1
70,123.29819499999985,127.3247323999999,none,1,717.2193012999996,719.6005138,722.9336370999999,724.4275462,huilen,gebaren,0,huilen,2
70,123.29819499999985,127.3247323999999,none,1,725.0539005,727.0194971999999,730.7828027999999,732.6044661999999,horen,gebaren,0,luisteren,0
70,123.29819499999985,127.3247323999999,none,1,735.1809017999999,736.8993722,740.5905272999998,742.3300307,horen,gebaren,1,horen,1
70,123.29819499999985,754.3668441,practice,0,806.0324934999999,809.4940311999999,813.9817662,816.9576643999999,fiets,combinatie,0,fietsen,0
70,123.29819499999985,754.3668441,practice,0,822.9102319999997,824.3612143,829.1264289000001,831.3515875999997,fiets,combinatie,1,fiets,0
70,123.29819499999985,754.3668441,practice,0,831.8115819,835.6778698999997,840.7784413999998,842.8447885999999,juichen,combinatie,0,juichen,0
70,123.29819499999985,754.3668441,none,0,844.9968307999998,847.1321448999997,850.3939787999998,853.2547881999999,walgen,combinatie,0,vies,0
70,123.29819499999985,754.3668441,none,0,856.023322,863.3523206,867.2214027,876.2581788999996,walgen,combinatie,1,afkeuren,0
70,123.29819499999985,754.3668441,none,0,881.8442206,885.8850267999997,891.6722523999997,902.6119271999996,walgen,combinatie,2,smerig,0
70,123.29819499999985,754.3668441,none,0,907.5981647999997,912.6109014999997,921.9319181999999,923.0743141999997,scherp,combinatie,0,mes,0
70,123.29819499999985,754.3668441,none,0,926.2588759999999,929.4491684,937.8203103999999,940.2259492999997,scherp,combinatie,1,scherp,1
70,123.29819499999985,754.3668441,none,0,941.8281539999998,954.7369495999997,962.6895728999998,964.5627632000001,piepen,combinatie,0,pesten,0
70,123.29819499999985,754.3668441,none,0,968.5485948,987.1290193999998,996.8383642999997,1022.6630058999999,piepen,combinatie,1,kapot,0
70,123.29819499999985,754.3668441,none,0,1029.81558,1042.3644052,1047.991685,1049.9420842,piepen,combinatie,2,kraken,0
70,123.29819499999985,754.3668441,none,0,1057.0865804,1060.7016227,1066.5195092,1068.8282236,staart,combinatie,0,staart,2
70,123.29819499999985,754.3668441,none,0,1072.4802486999997,1075.9618013,1081.9879880999997,1084.2803590999997,verbranden,combinatie,0,mug,0
70,123.29819499999985,754.3668441,none,0,1088.2826345999997,1089.3873365,1096.6006763999999,1098.7743089,verbranden,combinatie,1,verbranden,1
70,123.29819499999985,754.3668441,none,0,1100.8678415999998,1104.0305865,1118.1642018999996,1120.6870921999998,rennen,combinatie,0,wandelen,0
70,123.29819499999985,754.3668441,none,0,1129.2059197999997,1130.0877038999997,1134.3085864999998,1146.9064691999997,rennen,combinatie,1,hardlopen,0
70,123.29819499999985,754.3668441,none,0,1153.6088802,1154.6316617999996,1162.7399613999996,1164.0503639999997,rennen,combinatie,2,rennen,0.5
70,123.29819499999985,754.3668441,none,0,1172.8946401999997,1176.7920661999997,1184.5708283999998,1187.0539016999996,lopen,combinatie,0,lopen,2
70,123.29819499999985,754.3668441,practice,1,1239.8044857999998,1244.3303085999996,1250.7976126999997,1252.7136606999998,vliegtuig,combinatie,0,vliegen,0
70,123.29819499999985,754.3668441,practice,1,1258.8909817999997,1266.0798477999997,1274.5836753999997,1288.1523886,vliegtuig,combinatie,1,superheld,0
70,123.29819499999985,754.3668441,practice,1,1293.1127139,1301.6704574999999,1308.1264747999999,1312.6640254999998,vliegtuig,combinatie,2,stewardes,0
70,123.29819499999985,754.3668441,practice,1,1320.6001014999997,1323.3123821,1326.7243455999997,1329.5998713,geheim,combinatie,0,stil,0
70,123.29819499999985,754.3668441,practice,1,1332.6354026999998,1333.6940249999998,1337.7151335999997,1343.6435020999998,geheim,combinatie,1,bibliotheek,0
70,123.29819499999985,754.3668441,practice,1,1346.9708192999997,1353.1777626999997,1359.36166,1363.4129527999999,geheim,combinatie,2,sussen,0
70,123.29819499999985,754.3668441,none,1,1373.8659089999996,1376.6616955999998,1379.6978196,1380.8073221999998,hond,combinatie,0,hond,2
70,123.29819499999985,754.3668441,none,1,1383.1264302,1385.5001653,1388.2339137999998,1393.3259761999998,heet,combinatie,0,heet,2
70,123.29819499999985,754.3668441,none,1,1394.7860155999997,1400.0523214999998,1403.8788360999997,1409.3699736999997,bliksem,combinatie,0,instorten,0
70,123.29819499999985,754.3668441,none,1,1413.0891595999997,1414.1501257999998,1418.7417449999998,1424.4721239,bliksem,combinatie,1,raket,0
70,123.29819499999985,754.3668441,none,1,1431.6746891999996,1441.3963510999997,1448.804102,1452.4513014999998,bliksem,combinatie,2,vuurwerk,0
70,123.29819499999985,754.3668441,none,1,1458.8706155,1462.5329947,1466.8470780999996,1468.2466319999994,kauwen,combinatie,0,kauwen,2
70,123.29819499999985,754.3668441,none,1,1468.7383670999998,1470.9579822999995,1473.2552188999998,1476.5548122,vallen,combinatie,0,flauwvallen,0
70,123.29819499999985,754.3668441,none,1,1479.8403014999994,1481.7059068999997,1485.1575152999994,1486.7397019,vallen,combinatie,1,vallen,1
70,123.29819499999985,754.3668441,none,1,1487.8586453999997,1492.6852,1494.8406383000001,1495.9078043,slaan,combinatie,0,slaan,2
70,123.29819499999985,754.3668441,none,1,1496.4757,1498.8362156000003,1502.9131179999995,1504.5339060999995,jagen,combinatie,0,schieten,0
70,123.29819499999985,754.3668441,none,1,1508.0946359999998,1508.4591132999994,1516.6765015,1520.2779436,jagen,combinatie,1,jagen,1
70,123.29819499999985,1542.4080525,practice,0,1587.7147601999995,1591.2331546999994,1596.4487201000002,1597.8064775000003,klok,geluiden,0,klok,0
70,123.29819499999985,1542.4080525,practice,0,1598.6741651000002,1602.6254119999994,1608.1009905,1610.0756345999998,zingen,geluiden,0,zingen,0
70,123.29819499999985,1542.4080525,none,0,1618.6857964,1621.6929915,1624.4985211000003,1634.2530296999994,boos,geluiden,0,ontevreden,0
70,123.29819499999985,1542.4080525,none,0,1638.9138258000003,1640.0682332999995,1643.3229659999997,1651.1890082999998,boos,geluiden,1,grommen,0
70,123.29819499999985,1542.4080525,none,0,1655.1580279999998,1656.1722154999998,1661.7014430999998,1682.8016815,boos,geluiden,2,hmmpf,0
70,123.29819499999985,1542.4080525,none,0,1691.3963947000002,1695.4268419999999,1703.6925333999998,1705.3560198999994,vogel,geluiden,0,vogel,2
70,123.29819499999985,1542.4080525,none,0,1706.0567487999997,1710.3080549999995,1712.7850189,1715.5741909999997,dood,geluiden,0,overgeven,0
70,123.29819499999985,1542.4080525,none,0,1719.3090402999997,1721.6740762999998,1725.4978387,1727.0832193999995,dood,geluiden,1,kots,0
70,123.29819499999985,1542.4080525,none,0,1734.6110594000002,1741.0354107000003,1745.3796136,1759.8047686,dood,geluiden,2,scheet,0
70,123.29819499999985,1542.4080525,none,0,1765.1575563999995,1768.6562009,1775.2910888999995,1776.8407067999997,vlieg,geluiden,0,mug,0
70,123.29819499999985,1542.4080525,none,0,1783.1682928,1784.5858501000002,1790.9590520000002,1793.4937926000002,vlieg,geluiden,1,dromen,0
70,123.29819499999985,1542.4080525,none,0,1800.0461196999995,1800.8460632999995,1807.6850050000003,1808.9953796,vlieg,geluiden,2,bij,0
70,123.29819499999985,1542.4080525,none,0,1812.5310385000002,1847.4809051000002,1859.2104903,1860.9781736999994,hoorn,geluiden,0,paard,0
70,123.29819499999985,1542.4080525,none,0,1867.1972275999997,1868.5629221999998,1875.1533355000001,1878.6638843,hoorn,geluiden,1,stal,0
70,123.29819499999985,1542.4080525,none,0,1885.6089353999996,1901.0500338000002,1911.7814983999997,1917.7530938999998,hoorn,geluiden,2,mest,0
70,123.29819499999985,1542.4080525,none,0,1922.2051622,1926.1724266,1938.2582209000002,1939.6980076,zoet,geluiden,0,eten,0
70,123.29819499999985,1542.4080525,none,0,1946.1175121999995,1967.3682308999996,1977.9392693999998,1981.8542574000003,zoet,geluiden,1,proeven,0
70,123.29819499999985,1542.4080525,none,0,1988.5814453000003,1993.4707134,2002.7965192000001,2004.6830116,zoet,geluiden,2,lekker,0
70,123.29819499999985,1542.4080525,none,0,2008.0265491999999,2011.8758268000001,2018.7630160999997,2021.2849197999994,eten,geluiden,0,smakken,0
70,123.29819499999985,1542.4080525,none,0,2025.2535767999998,2028.8062632,2041.7585093999996,2044.4469779,eten,geluiden,1,kauwen,0
70,123.29819499999985,1542.4080525,none,0,2049.5822995999997,2049.9438111,2057.8995606,2062.3326061,eten,geluiden,2,eten,0.5
70,123.29819499999985,1542.4080525,practice,1,2113.9168930999995,2141.6482885999994,2148.1079161,2152.4043137999997,bal,geluiden,0,niezen,0
70,123.29819499999985,1542.4080525,practice,1,2159.4655513999996,2171.0638455999997,2176.4556188999995,2185.9174856,bal,geluiden,1,water,0
70,123.29819499999985,1542.4080525,practice,1,2191.3869036999995,2211.1150972999994,2216.0840265999996,2228.3152825999996,bal,geluiden,2,regen,0
70,123.29819499999985,1542.4080525,practice,1,2239.9604381999998,2243.2311463999995,2246.1232799,2247.1517163999997,eend,geluiden,0,eend,0
70,123.29819499999985,1542.4080525,none,1,2249.6871548,2251.4017349999995,2253.8153762,2254.4108970999996,kat,geluiden,0,kat,2
70,123.29819499999985,1542.4080525,none,1,2255.0039459,2258.2470992999997,2261.4432071,2285.4071796,man,geluiden,0,zelfverzekerd,0
70,123.29819499999985,1542.4080525,none,1,2289.5262935,2289.7196033,2295.3294764,2301.2509076999995,man,geluiden,1,man,1
70,123.29819499999985,1542.4080525,none,1,2302.3606379000003,2305.1329666,2309.7886025999996,2311.7610490999996,misschien,geluiden,0,vrouw,0
70,123.29819499999985,1542.4080525,none,1,2316.8801685999997,2317.7973326,2323.3287413999997,2330.455554,misschien,geluiden,1,kiezen,0
70,123.29819499999985,1542.4080525,none,1,2333.9081558999997,2335.6419737999995,2341.9644479,2353.7507014000003,misschien,geluiden,2,praten,0
70,123.29819499999985,1542.4080525,none,1,2359.2278460999996,2363.6191198999995,2368.7155035999995,2373.2450385,regen,geluiden,0,regen,2
70,123.29819499999985,1542.4080525,none,1,2374.9635828,2383.3084321999995,2389.4190579999995,2390.6308692000002,dik,geluiden,0,lekker,0
70,123.29819499999985,1542.4080525,none,1,2395.0418228999997,2396.2582033999997,2402.6279844,2417.1431321,dik,geluiden,1,heerlijk,0
70,123.29819499999985,1542.4080525,none,1,2420.9707516999997,2421.1694235999994,2428.8130765999995,2432.1204041,dik,geluiden,2,vlees,0
70,123.29819499999985,1542.4080525,none,1,2440.8398157,2442.8696338,2445.7425015999997,2449.1821456999996,lachen,geluiden,0,lachen,2
70,123.29819499999985,1542.4080525,none,1,2449.7411107,2456.2598571,2460.1219319,2462.6248766999997,zuigen,geluiden,0,drinken,0
70,123.29819499999985,1542.4080525,none,1,2466.2023338999998,2467.9974489999995,2470.5677458,2473.2182551999995,zuigen,geluiden,1,slurpen,0
70,123.29819499999985,1542.4080525,none,1,2475.9371689,2477.0330157,2480.2944657999997,2510.4656121,zuigen,geluiden,2,atten,0
