ID,exp_start,block_start,practice,cycle,display_start,trial_start,trial_end,RT,word,modality,correction,answer,points
15,7.157825299999786,459.68904599999996,practice,0,586.2494161,591.6752292000001,592.7895804999998,614.7388676999999,auto,gebaren,,autorijden,0
15,7.157825299999786,459.68904599999996,practice,0,614.7869096999998,617.1474496000001,630.4301126,633.9160548999998,haasten,gebaren,,stress,0
15,7.157825299999786,459.68904599999996,none,0,651.7088802999997,654.7515457999998,661.8047587000001,671.5967774999999,bitter,gebaren,,vies,0
15,7.157825299999786,459.68904599999996,none,0,671.6372495,676.0527065000001,694.9600971,697.6421175,hond,gebaren,,hond,1
15,7.157825299999786,459.68904599999996,none,0,697.6825157999997,700.5181557999999,708.7737109999998,712.0697015000001,sterk,gebaren,,sterk,1
15,7.157825299999786,459.68904599999996,none,0,712.1094255999997,714.0805717999997,723.4077972,725.9215248999999,zoet,gebaren,,lekker,0
15,7.157825299999786,459.68904599999996,none,0,725.9699559999999,727.1200534,740.4861811000001,743.8905374999999,onweer,gebaren,,vuurwerk,0
15,7.157825299999786,459.68904599999996,none,0,743.9309785,744.9170872,754.2877863999997,757.7014798999999,slaan,gebaren,,boksen,0
15,7.157825299999786,459.68904599999996,none,0,757.7494560999999,758.7118557999997,765.8616275999998,769.1696803,kotsen,gebaren,,overgeven,0
15,7.157825299999786,459.68904599999996,practice,1,918.7173874999999,922.0418987999997,930.3075064999998,936.935461,knippen,gebaren,,knippen,0
15,7.157825299999786,459.68904599999996,practice,1,936.9787068,944.4415064999998,958.6411604999998,961.2139727999997,rijk,gebaren,,geld,0
15,7.157825299999786,459.68904599999996,none,1,966.7993560999998,972.2049879000001,982.9129078999999,985.0922063999997,ei,gebaren,,ei,1
15,7.157825299999786,459.68904599999996,none,1,985.1273539999997,987.2699069,995.8970927,998.4860205999998,heet,gebaren,,heet,1
15,7.157825299999786,459.68904599999996,none,1,998.5204217999999,1001.7684067999999,1007.6567775999997,1013.9301799999998,bang,gebaren,,verbaasd,0
15,7.157825299999786,459.68904599999996,none,1,1013.9727297999998,1016.0965438999997,1024.1325960999998,1028.1319405999998,blazen,gebaren,,blazen,1
15,7.157825299999786,459.68904599999996,none,1,1028.1671204999998,1030.9997886,1042.0570816999998,1053.5023521999997,springen,gebaren,,achtbaan,0
15,7.157825299999786,459.68904599999996,none,1,1053.5457636,1055.9823811,1061.6862723999998,1067.0042435,ruiken,gebaren,,ruiken,1
15,7.157825299999786,459.68904599999996,none,1,1067.0388737999997,1070.1937374999998,1082.3267025999999,1093.3249904,fluisteren,gebaren,,stilte,0
15,7.157825299999786,1098.4525083999997,practice,0,1198.9583460999997,1205.5910716999997,1214.4273866999997,1219.9436206999999,snijden,geluiden,,knippen,0
15,7.157825299999786,1098.4525083999997,practice,0,1219.9870326,1225.5321224999998,1230.6507124,1234.8290855,gek,geluiden,,schreeuwen,0
15,7.157825299999786,1098.4525083999997,none,0,1247.190442,1249.5957014,1252.4222731,1258.4825477,niet,geluiden,,lekker,0
15,7.157825299999786,1098.4525083999997,none,0,1258.5178883999997,1262.9145813,1268.8245702999998,1272.7182186,klein,geluiden,,schattig,0
15,7.157825299999786,1098.4525083999997,none,0,1272.7613965,1275.5700419,1284.2530235,1291.8624655999997,verbranden,geluiden,,wind,0
15,7.157825299999786,1098.4525083999997,none,0,1291.9059773,1293.8859241,1300.4914651,1304.4227112999997,grommen,geluiden,,grommen,1
15,7.157825299999786,1098.4525083999997,none,0,1304.465987,1308.4659965,1315.9508228,1319.1915126999997,horen,geluiden,,luisteren,0
15,7.157825299999786,1098.4525083999997,none,0,1319.2349322999999,1324.9013962999998,1333.3564432999997,1347.5206427999997,zwemmen,geluiden,,wind,0
15,7.157825299999786,1098.4525083999997,none,0,1347.5554395999998,1351.2705167999998,1361.1025965,1366.1661196,lopen,geluiden,,stappen,0
15,7.157825299999786,1098.4525083999997,practice,1,1479.36656,1486.6777478999998,1494.4196708999998,1501.5768432999998,leeg,geluiden,,stilte,0
15,7.157825299999786,1098.4525083999997,practice,1,1501.6199956,1511.4912888999997,1519.9863117,1524.8885548999997,bloem,geluiden,,zoemen,0
15,7.157825299999786,1098.4525083999997,none,1,1533.1079246,1539.7348597,1549.0617886,1552.8759188999998,vogel,geluiden,,vogel,1
15,7.157825299999786,1098.4525083999997,none,1,1552.9109346,1557.2077313999998,1562.1848388999997,1567.6782739999999,goed,geluiden,,luisteren,0
15,7.157825299999786,1098.4525083999997,none,1,1567.7210225999997,1570.1920633,1574.5438369999997,1580.1217158,kauwen,geluiden,,smakken,0
15,7.157825299999786,1098.4525083999997,none,1,1580.1565434,1583.1122198999997,1589.4980287999997,1593.8997230999998,vliegen,geluiden,,wind,0
15,7.157825299999786,1098.4525083999997,none,1,1593.9336300999998,1599.2398306,1604.1361008999997,1614.87696,geven,geluiden,,twijfel,0
15,7.157825299999786,1098.4525083999997,none,1,1614.919974,1619.0903156999998,1623.006563,1631.2795277,weten,geluiden,,begrijpen,0
15,7.157825299999786,1098.4525083999997,none,1,1631.3137434,1635.0703897999997,1638.7074063999999,1661.1339863999997,staan,geluiden,,schrik,0
15,7.157825299999786,1664.4943454,practice,0,1753.4904754999998,1755.3062764000001,1761.6412603999997,1764.9490298,dansen,combinatie,,dansen,0
15,7.157825299999786,1664.4943454,practice,0,1765.0006416,1766.3521185,1774.2898400999998,1776.475587,comfortabel,combinatie,,warm,0
15,7.157825299999786,1664.4943454,none,0,1782.1445503,1783.5638617999998,1793.4838774,1795.5951368,man,combinatie,,man,1
15,7.157825299999786,1664.4943454,none,0,1795.6297325,1797.0288436,1810.6116527999998,1818.4819595,zout,combinatie,,flauw,0
15,7.157825299999786,1664.4943454,none,0,1818.5250089,1820.254868,1826.4282921999998,1828.4343063000001,slang,combinatie,,slang,1
15,7.157825299999786,1664.4943454,none,0,1828.4681138,1829.3491451,1839.8986006,1844.8529792,dik,combinatie,,dik,1
15,7.157825299999786,1664.4943454,none,0,1844.8953517,1846.285663,1852.7284193,1855.4122834,bijten,combinatie,,bijten,1
15,7.157825299999786,1664.4943454,none,0,1855.4555283999998,1856.6312761,1862.9104761999997,1865.0471051999998,slapen,combinatie,,slapen,1
15,7.157825299999786,1664.4943454,none,0,1865.0817069999998,1866.3581442,1875.2038948,1880.1500633,wind,combinatie,,wind,1
15,7.157825299999786,1664.4943454,practice,1,1935.3090824,1936.4519056999998,1951.0574103999998,1954.385519,koken,combinatie,,koken,0
15,7.157825299999786,1664.4943454,practice,1,1954.4371744999999,1957.7811754,1962.3309316999998,1965.7786077,olifant,combinatie,,olifant,0
15,7.157825299999786,1664.4943454,none,1,1968.0554161,1971.4200732999998,1976.9845658999998,1987.8651360999997,ik,combinatie,,jijzelf,0
15,7.157825299999786,1664.4943454,none,1,1987.900114,1990.257846,2002.1399726999998,2007.2180061999998,vuur,combinatie,,openhaart,0
15,7.157825299999786,1664.4943454,none,1,2007.2613671999998,2010.6752203,2022.2240889,2039.3060925,zwaar,combinatie,,bewegen,0
15,7.157825299999786,1664.4943454,none,1,2039.3492169,2041.2133734999998,2048.346714,2050.8910032999997,drinken,combinatie,,drinken,1
15,7.157825299999786,1664.4943454,none,1,2050.9344293,2053.0350568999997,2059.8071758,2065.4933078,vechten,combinatie,,boksen,0
15,7.157825299999786,1664.4943454,none,1,2065.5284495,2069.7809256,2076.9345451,2081.5954810999997,likken,combinatie,,ijsje,0
15,7.157825299999786,1664.4943454,none,1,2081.6305273,2085.8868386999998,2094.6818293,2098.9484205,zuigen,combinatie,,rietje,0
