ID,exp_start,block_start,practice,cycle,display_start,trial_start,trial_end,RT,word,modality,correction,answer,points
16,6.049776200001361,565.1186051999975,practice,0,683.5357032000029,696.1930384000007,716.9330364000052,726.1324676999939,bloem,combinatie,,kaars,0
16,6.049776200001361,565.1186051999975,practice,0,726.1839505000098,728.2235550000041,734.0568380999903,740.3935914000031,comfortabel,combinatie,,wakker,0
16,6.049776200001361,565.1186051999975,none,0,743.261500099994,745.167615000013,749.7608376000135,755.5784178000176,groot,combinatie,,verrast,0
16,6.049776200001361,565.1186051999975,none,0,755.6133849000034,757.1919754999981,761.8937505999929,764.5798434000171,vlieg,combinatie,,wind,0
16,6.049776200001361,565.1186051999975,none,0,764.6234804000123,766.6517538999906,769.8102665999904,773.6643556999916,verdrietig,combinatie,,huilen,0
16,6.049776200001361,565.1186051999975,none,0,773.6992955000023,777.4439674000023,783.0930688999943,785.2494200000074,zout,combinatie,,zout,1
16,6.049776200001361,565.1186051999975,none,0,785.2842535999953,786.916437900014,790.1119247000024,792.5922410000057,rennen,combinatie,,joggen,0
16,6.049776200001361,565.1186051999975,none,0,792.6270814000163,794.3607435000013,797.6446796999953,800.7441990000079,zuigen,combinatie,,ademen,0
16,6.049776200001361,565.1186051999975,none,0,800.7866759000171,802.2656581999909,804.2765429000137,807.7861182999914,kotsen,combinatie,,kotsen,1
16,6.049776200001361,565.1186051999975,practice,1,935.4731628000154,939.572167700011,949.354789200006,951.7324855999905,snijden,combinatie,,zagen,0
16,6.049776200001361,565.1186051999975,practice,1,951.7838874000008,958.4271182999946,962.3054802000115,971.4269349999959,leeg,combinatie,,vol,0
16,6.049776200001361,565.1186051999975,none,1,976.229230500001,978.7445141999924,982.1168886999949,986.0214561000175,boos,combinatie,,boos,1
16,6.049776200001361,565.1186051999975,none,1,986.0637786000152,987.3850784999959,994.8535758999933,998.1309377000143,bitter,combinatie,,smakken,0
16,6.049776200001361,565.1186051999975,none,1,998.1654749000154,1001.8541229999973,1005.0207029000157,1009.8075050000043,dood,combinatie,,vermoorden,0
16,6.049776200001361,565.1186051999975,none,1,1009.8509420999908,1013.4027848000114,1017.6704033999995,1023.009511900018,vuur,combinatie,,wind,0
16,6.049776200001361,565.1186051999975,none,1,1023.0528063999955,1024.1077749000106,1031.2898967000074,1035.504116199998,langzaam,combinatie,,sjokken,0
16,6.049776200001361,565.1186051999975,none,1,1035.5463446000067,1037.0265590999916,1042.8703697000165,1046.4554620000126,bijten,combinatie,,bijten,1
16,6.049776200001361,565.1186051999975,none,1,1046.4893581999931,1051.9064852000156,1057.806121200003,1065.8240915999922,ademen,combinatie,,ademen,1
16,6.049776200001361,1068.909523600014,practice,0,1273.289540800004,1275.739482200006,1293.9214985000144,1301.6510406000016,olifant,geluiden,,stilte,0
16,6.049776200001361,1068.909523600014,practice,0,1301.6936539000017,1317.5679853000038,1318.7392850000178,1329.9548050000158,knippen,geluiden,,snipperen,0
16,6.049776200001361,1068.909523600014,none,0,1333.464991899993,1333.5305853000027,1341.858389800007,1345.1408376999898,zoemen,geluiden,,bij,0
16,6.049776200001361,1068.909523600014,none,0,1345.1754333999997,1347.8860656000033,1350.4973868000088,1354.0916414000094,koud,geluiden,,auto,0
16,6.049776200001361,1068.909523600014,none,0,1354.1265301000094,1357.9823999000073,1361.931913700013,1365.9434182000114,ver,geluiden,,blazen,0
16,6.049776200001361,1068.909523600014,none,0,1365.9866848000092,1367.681266700005,1369.9810355000081,1372.5199163999932,misschien,geluiden,,twijfelen,0
16,6.049776200001361,1068.909523600014,none,0,1372.5624893000058,1375.2316454999964,1377.8738164000097,1385.988319199998,zoet,geluiden,,bevestiging,0
16,6.049776200001361,1068.909523600014,none,0,1386.0313913999998,1389.0639675999992,1391.4042189000174,1393.5891755000048,jagen,geluiden,,schrikken,0
16,6.049776200001361,1068.909523600014,none,0,1393.6239709999936,1395.7462143000157,1398.1278518000036,1401.1733841999958,fluisteren,geluiden,,fluisteren,1
16,6.049776200001361,1068.909523600014,practice,1,1468.7522232999909,1475.7298736000084,1481.3361217000056,1500.7549050000089,rijk,geluiden,,twijfelen,0
16,6.049776200001361,1068.909523600014,practice,1,1500.7983484000142,1502.9011434999993,1506.3188066000002,1512.2898966000066,auto,geluiden,,motor,0
16,6.049776200001361,1068.909523600014,none,1,1516.2588762000087,1518.6338008000166,1523.612216300011,1528.0672306999913,vogel,geluiden,,spuiten,0
16,6.049776200001361,1068.909523600014,none,1,1528.102311499999,1532.5850836000172,1536.3747561000055,1543.4776851999923,hond,geluiden,,grommen,0
16,6.049776200001361,1068.909523600014,none,1,1543.5211075000116,1548.9216163000092,1551.8235724999977,1558.313529200008,hoorn,geluiden,,olifant,0
16,6.049776200001361,1068.909523600014,none,1,1558.3572331000178,1563.5928758000082,1566.505965999997,1573.1654147999943,luidruchtig,geluiden,,machine,0
16,6.049776200001361,1068.909523600014,none,1,1573.2089623000065,1579.1961453999975,1583.784199799993,1588.501207399997,staart,geluiden,,spuiten,0
16,6.049776200001361,1068.909523600014,none,1,1588.5362977999903,1591.7163602999935,1596.985637900012,1607.3123444000084,vliegen,geluiden,,blazen,0
16,6.049776200001361,1068.909523600014,none,1,1607.3552762999898,1613.9566193000064,1621.4821615999972,1623.9647832000046,grommen,geluiden,,grommen,1
16,6.049776200001361,1694.5102610000176,practice,0,1726.53149210001,1728.3285482999927,1731.2882822999964,1734.7561508000072,dansen,gebaren,,wiggelen,0
16,6.049776200001361,1694.5102610000176,practice,0,1734.799623400002,1738.8198227999965,1743.6516708999989,1745.5243852999993,haasten,gebaren,,haast,0
16,6.049776200001361,1694.5102610000176,none,0,1750.2345942000102,1751.763264100009,1753.5884952000051,1755.4840926000034,ik,gebaren,,ik,1
16,6.049776200001361,1694.5102610000176,none,0,1755.5189807999996,1758.812945999991,1761.952371899999,1769.069256399991,vrouw,gebaren,,pop,0
16,6.049776200001361,1694.5102610000176,none,0,1769.104230099998,1770.5972160999954,1774.450825900014,1775.8955191000132,heet,gebaren,,heet,1
16,6.049776200001361,1694.5102610000176,none,0,1775.930357300007,1777.6645972999977,1780.135607300006,1782.8296484000166,dik,gebaren,,openmaken,0
16,6.049776200001361,1694.5102610000176,none,0,1782.8733772000123,1785.3497042999952,1788.6514564999961,1792.2145268000022,blazen,gebaren,,blazen,1
16,6.049776200001361,1694.5102610000176,none,0,1792.2493068000185,1794.0127053000033,1797.5508016000094,1798.8404670000018,verbranden,gebaren,,heet,0
16,6.049776200001361,1694.5102610000176,none,0,1798.8749816000054,1800.9215052000072,1804.6754952000047,1806.5673744000087,staan,gebaren,,hier,0
16,6.049776200001361,1694.5102610000176,practice,1,1871.877886900009,1874.6471671999898,1879.6020755000063,1882.7373617000121,koken,gebaren,,zagen,0
16,6.049776200001361,1694.5102610000176,practice,1,1882.7794435000105,1886.4349892000027,1890.378676399996,1895.4378915000125,gek,gebaren,,ontwijken,0
16,6.049776200001361,1694.5102610000176,none,1,1898.7320298000122,1900.6046519000083,1903.5414326000027,1910.6905250000127,snel,gebaren,,haasten,0
16,6.049776200001361,1694.5102610000176,none,1,1910.7254187999933,1913.659240500012,1920.0701642000058,1924.1756200999953,oud,gebaren,,treuzelen,0
16,6.049776200001361,1694.5102610000176,none,1,1924.2101075999963,1927.3906121000182,1931.0512237999937,1934.6022151999932,stil,gebaren,,stil,1
16,6.049776200001361,1694.5102610000176,none,1,1934.6370700999978,1938.8124958999979,1942.9431279000128,1950.6210607000103,slang,gebaren,,zwemmen,0
16,6.049776200001361,1694.5102610000176,none,1,1950.656077199994,1954.0418622000143,1957.8289901000098,1960.2142746000027,zuur,gebaren,,zuur,1
16,6.049776200001361,1694.5102610000176,none,1,1960.2493177000142,1963.1835833000077,1967.4746976000024,1976.6666887000029,ruiken,gebaren,,neus,0
16,6.049776200001361,1694.5102610000176,none,1,1976.7014488000132,1979.978594300017,1984.0755214999954,1985.801853300014,zwemmen,gebaren,,zwemmen,1
