ID,exp_start,block_start,practice,cycle,display_start,trial_start,trial_end,RT,word,modality,correction,answer,points
33,701.7242305,740.6575107000026,practice,0,894.9382245000015,1005.9081928000014,1010.6635601000016,1028.0311424000029,gek,geluiden,,walging,0
33,701.7242305,740.6575107000026,practice,0,1028.0749822000034,1051.619290900002,1055.1817462000035,1059.6023786000005,koken,geluiden,,inademen,0
33,701.7242305,740.6575107000026,none,0,1073.3394773,1092.4648080000006,1095.4205471000023,1099.0749335,ei,geluiden,,breken,0
33,701.7242305,740.6575107000026,none,0,1099.1184650000032,1106.8667867000004,1110.0680011000004,1118.6026641000026,blij,geluiden,,verbazing,0
33,701.7242305,740.6575107000026,none,0,1118.6460238,1157.0043097000016,1159.8535435000013,1174.8108889000032,kruipen,geluiden,,storing,0
33,701.7242305,740.6575107000026,none,0,1174.8542861000024,1181.413969600002,1184.3973442000024,1194.1804306000013,huilen,geluiden,,huilen,1
33,701.7242305,740.6575107000026,none,0,1194.2240090000014,1224.7847410000031,1227.4423190000016,1235.144817700002,zwemmen,geluiden,,vis,0
33,701.7242305,740.6575107000026,none,0,1235.1799370000008,1241.6754408000015,1244.4685683000025,1247.1799108000014,gooien,geluiden,,wind,0
33,701.7242305,740.6575107000026,none,0,1247.2151148000012,1258.3799449000035,1261.7563236000024,1270.2831608000015,water,geluiden,,regenen,0
33,701.7242305,740.6575107000026,practice,1,1413.4146706000029,1419.3571298000024,1423.2479113000009,1426.9397156000014,auto,geluiden,,auto,0
33,701.7242305,740.6575107000026,practice,1,1426.9833334000032,1444.418220800002,1449.2780365000035,1453.3351598000008,leeg,geluiden,,twijfelen,0
33,701.7242305,740.6575107000026,none,1,1456.362668400001,1458.6724108000017,1462.0415415000025,1463.6200727000032,kat,geluiden,,kat,1
33,701.7242305,740.6575107000026,none,1,1463.6634803000015,1469.7138968000036,1472.0864745000035,1474.9132836000026,walgen,geluiden,,vies,0
33,701.7242305,740.6575107000026,none,1,1474.9485876000035,1479.9562919000018,1482.6767321000007,1494.374565500002,klein,geluiden,,lift,0
33,701.7242305,740.6575107000026,none,1,1494.4179366000026,1498.4895202000007,1501.2359369000005,1504.7176691000022,horen,geluiden,,vragen,0
33,701.7242305,740.6575107000026,none,1,1504.7528611000016,1507.0978428000017,1509.427986900002,1511.0768654000021,lachen,geluiden,,lachen,1
33,701.7242305,740.6575107000026,none,1,1511.1121577000013,1513.1755075,1516.037923900003,1526.470814100001,ruiken,geluiden,,verdrietig,0
33,701.7242305,740.6575107000026,none,1,1526.5060565000022,1528.888385000002,1532.7586315000008,1536.2473150000005,fluisteren,geluiden,,schieten,0
33,701.7242305,1540.4167032000005,practice,0,1630.2132146000004,1634.4681724000002,1638.2340134000005,1641.4300507000007,snijden,combinatie,,zagen,0
33,701.7242305,1540.4167032000005,practice,0,1641.4812915000002,1646.0015598000027,1650.1340347000005,1657.8235050000003,comfortabel,combinatie,,fijn,0
33,701.7242305,1540.4167032000005,none,0,1660.9427055000015,1666.0775982000014,1670.5841650000002,1677.0513376000017,kind,combinatie,,wiegen,0
33,701.7242305,1540.4167032000005,none,0,1677.0948064000004,1683.7328197000024,1688.3533363000024,1702.5217094,langzaam,combinatie,,traag,0
33,701.7242305,1540.4167032000005,none,0,1702.5579803,1724.1712228000033,1730.5179052000021,1734.0930563000002,zoet,combinatie,,genieten,0
33,701.7242305,1540.4167032000005,none,0,1734.1280130000014,1739.5582788000029,1746.1490257000005,1758.3882687000005,ademen,combinatie,,ademen,1
33,701.7242305,1540.4167032000005,none,0,1758.423330900001,1763.6409647,1766.589620900002,1770.7567209000008,grommen,combinatie,,grommen,1
33,701.7242305,1540.4167032000005,none,0,1770.800323800002,1781.9347282000017,1785.8711742000014,1788.8260452000031,zuigen,combinatie,,zuigen,1
33,701.7242305,1540.4167032000005,none,0,1788.8606476000023,1801.429314500001,1805.6996671000015,1820.7638670000015,lopen,combinatie,,margeren,0
33,701.7242305,1540.4167032000005,practice,1,1922.3227431000014,1925.8386056000018,1931.596156800002,1933.638978400002,rijk,combinatie,,geld,0
33,701.7242305,1540.4167032000005,practice,1,1933.690984500001,1936.4745038,1939.1720000000023,1941.456791200002,haasten,combinatie,,rennen,0
33,701.7242305,1540.4167032000005,none,1,1943.9254645,1946.613387700003,1951.2470165000013,1952.667469400003,zoemen,combinatie,,bij,0
33,701.7242305,1540.4167032000005,none,1,1952.701492600001,1954.9734150000004,1958.3628181000022,1960.1845392000032,dood,combinatie,,dood,1
33,701.7242305,1540.4167032000005,none,1,1960.219567,1963.9422389000028,1969.812647900002,1975.6867444000018,hoorn,combinatie,,roepen,0
33,701.7242305,1540.4167032000005,none,1,1975.721315900002,1979.8394285000031,1983.5109925000033,1986.2383566000026,geur,combinatie,,ruiken,0
33,701.7242305,1540.4167032000005,none,1,1986.2739071000033,1988.338854900001,1991.8870819000003,1993.8812273000003,drinken,combinatie,,drinken,1
33,701.7242305,1540.4167032000005,none,1,1993.9161329000017,1995.6388891000024,1998.7632932000015,2002.832417200003,rennen,combinatie,,rennen,1
33,701.7242305,1540.4167032000005,none,1,2002.8677174000004,2006.1810212000019,2009.9907213000006,2012.575579700002,staan,combinatie,,rustig,0
33,701.7242305,2015.4863182000008,practice,0,2074.4448710000033,2083.968986400003,2088.1921908000004,2093.8875257,bloem,gebaren,,geur,0
33,701.7242305,2015.4863182000008,practice,0,2093.9309453000023,2096.221488000003,2100.9024073,2102.3635605000018,knippen,gebaren,,schaar,0
33,701.7242305,2015.4863182000008,none,0,2104.9828186000013,2107.3930075000026,2111.4421617000007,2112.774264900003,ver,gebaren,,zoeken,0
33,701.7242305,2015.4863182000008,none,0,2112.808649300001,2115.1884991000006,2119.050221100002,2120.2830052000027,snel,gebaren,,haasten,0
33,701.7242305,2015.4863182000008,none,0,2120.3181922000003,2122.329455700001,2126.2867162000002,2132.1354599000006,goed,gebaren,,goed,1
33,701.7242305,2015.4863182000008,none,0,2132.178434700003,2137.0755215000027,2142.7833611000024,2144.1955871000027,zwaar,gebaren,,zwaar,1
33,701.7242305,2015.4863182000008,none,0,2144.2299728000035,2148.4937599000004,2153.9619518,2154.671384600002,oud,gebaren,,oud,1
33,701.7242305,2015.4863182000008,none,0,2154.7149046000013,2158.5929582000026,2161.8064041000034,2163.2476969000018,sterk,gebaren,,sterk,1
33,701.7242305,2015.4863182000008,none,0,2163.2831710000028,2169.586976100003,2173.827487800001,2175.9174661000034,likken,gebaren,,likken,1
33,701.7242305,2015.4863182000008,practice,1,2230.8344989000034,2235.634860500002,2239.7859104000017,2242.1009550000017,olifant,gebaren,,olifant,0
33,701.7242305,2015.4863182000008,practice,1,2242.1443327000015,2244.5174708000013,2248.2934933000033,2249.7937659000017,dansen,gebaren,,dansen,0
33,701.7242305,2015.4863182000008,none,1,2251.8790896000028,2254.3819393000012,2259.3408376000007,2261.0035849000014,groot,gebaren,,groeien,0
33,701.7242305,2015.4863182000008,none,1,2261.038764000001,2264.047102200002,2267.8333194000006,2269.8218001000023,koud,gebaren,,kou,0
33,701.7242305,2015.4863182000008,none,1,2269.8567318000023,2272.8568559000014,2278.0468530000035,2279.4064012000017,heet,gebaren,,warm,0
33,701.7242305,2015.4863182000008,none,1,2279.4500057000005,2282.4799102000034,2287.611529900001,2293.550174600001,bliksem,gebaren,,wijzen,0
33,701.7242305,2015.4863182000008,none,1,2293.5938986,2302.568635800002,2306.807127600001,2315.528653000001,verbranden,gebaren,,dansen,0
33,701.7242305,2015.4863182000008,none,1,2315.5636859000006,2319.9142331000003,2323.0244837000027,2325.504854900002,vallen,gebaren,,vallen,1
33,701.7242305,2015.4863182000008,none,1,2325.5402078000006,2327.4625191000014,2331.2375132000016,2333.1142857000013,slapen,gebaren,,slapen,1
