ID,exp_start,block_start,practice,cycle,display_start,trial_start,trial_end,RT,word,modality,correction,answer,points
48,9.804827799991472,79.41743309999583,practice,0,111.28096309999819,116.98311380000087,123.1275358999992,124.98080399999162,zingen,combinatie,0,zingen,0
48,9.804827799991472,79.41743309999583,practice,0,126.03364399999555,129.19478359998902,135.3007004999963,137.13269909999508,telefoon,combinatie,0,bellen,0
48,9.804827799991472,79.41743309999583,practice,0,141.39416419999907,145.31249879999086,151.4967154999904,155.9187524000008,telefoon,combinatie,1,telefoon,0
48,9.804827799991472,79.41743309999583,none,0,160.5969247999892,163.71181109998724,167.91423289998784,169.64598159999878,snel,combinatie,0,rennen,0
48,9.804827799991472,79.41743309999583,none,0,172.9071796999924,176.4648804999888,183.08299049999914,191.56595469999593,snel,combinatie,1,snel,1
48,9.804827799991472,79.41743309999583,none,0,192.23495810000168,197.0183343999961,205.4437951,214.5193874999968,vuur,combinatie,0,heet,0
48,9.804827799991472,79.41743309999583,none,0,217.80491339998844,221.82788569999684,230.39823519998754,232.31379780000134,vuur,combinatie,1,vulkaan,0
48,9.804827799991472,79.41743309999583,none,0,236.77446729999792,241.62248869999894,256.4404594999942,263.72680559998844,vuur,combinatie,2,fornuis,0
48,9.804827799991472,79.41743309999583,none,0,268.7796698999882,274.7206833999953,282.85913709999295,288.69703909999225,hoorn,combinatie,0,hoorns,0
48,9.804827799991472,79.41743309999583,none,0,293.5338133999903,295.5701817999943,301.81754589999036,305.79133049999655,hoorn,combinatie,1,hoorn,1
48,9.804827799991472,79.41743309999583,none,0,306.81042699998943,310.001823899991,316.6154877999943,319.4015395999886,bliksem,combinatie,0,bliksem,2
48,9.804827799991472,79.41743309999583,none,0,320.32918249999057,326.3195568999945,334.3659947999986,343.7471960999974,zout,combinatie,0,proeven,0
48,9.804827799991472,79.41743309999583,none,0,347.4915900999913,354.5651369999978,363.9380730999983,365.58524329999636,zout,combinatie,1,suiker,0
48,9.804827799991472,79.41743309999583,none,0,371.5196808999899,378.9283174000011,385.527445899992,387.8637963999936,zout,combinatie,2,zout,0.5
48,9.804827799991472,79.41743309999583,none,0,388.4221428999881,390.9067115999933,395.9065258999908,397.7217874999915,stil,combinatie,0,stil,2
48,9.804827799991472,79.41743309999583,none,0,398.43226909999794,400.8078405999986,404.6302110999968,405.9648264999996,likken,combinatie,0,likken,2
48,9.804827799991472,79.41743309999583,practice,1,446.06493199999386,447.6602082999889,452.6508688999893,458.29781209999055,vliegtuig,combinatie,0,vliegtuig,0
48,9.804827799991472,79.41743309999583,practice,1,459.807736799994,461.04117060000135,466.9253516999888,470.72563059999084,bal,combinatie,0,bal,0
48,9.804827799991472,79.41743309999583,none,1,473.28481849998934,474.72301719999814,480.3317465,485.69342729999335,walgen,combinatie,0,afschuw,0
48,9.804827799991472,79.41743309999583,none,1,488.86289459999534,490.99392039999657,495.78652259999944,497.89546210000117,walgen,combinatie,1,vies,0
48,9.804827799991472,79.41743309999583,none,1,501.48934179999924,503.1287908999948,510.6425496999873,518.4400299999979,walgen,combinatie,2,smakeloos,0
48,9.804827799991472,79.41743309999583,none,1,522.7091967999877,524.2147878999967,531.8682831999904,551.4780964999954,ei,combinatie,0,hoog,0
48,9.804827799991472,79.41743309999583,none,1,556.6562305999978,557.5931349999883,563.1719306000014,569.0725036999938,ei,combinatie,1,aansteken,0
48,9.804827799991472,79.41743309999583,none,1,572.4921106999973,572.7374038999988,580.2577123999945,584.3998959999881,ei,combinatie,2,ei,0.5
48,9.804827799991472,79.41743309999583,none,1,585.6933769999887,587.000892600001,593.0272550999944,608.5618411999894,vrouw,combinatie,0,dans,0
48,9.804827799991472,79.41743309999583,none,1,612.3894263999973,612.5741359999956,619.528103699995,625.2727783000009,vrouw,combinatie,1,vrouw,1
48,9.804827799991472,79.41743309999583,none,1,626.899487799994,628.3981857999897,633.7599415000004,636.0742957999901,zwaar,combinatie,0,dik,0
48,9.804827799991472,79.41743309999583,none,1,639.6272064999939,639.8731612999982,646.2091832000006,654.2102229999873,zwaar,combinatie,1,moeilijk,0
48,9.804827799991472,79.41743309999583,none,1,658.4296726999892,658.7067676000006,666.744452599989,671.2463409999909,zwaar,combinatie,2,moeite,0
48,9.804827799991472,79.41743309999583,none,1,675.1407966999977,676.6861735999992,681.5365401000017,684.2566332999995,man,combinatie,0,trots,0
48,9.804827799991472,79.41743309999583,none,1,687.6508185999992,687.8297549999988,693.1582683999877,696.0499344999989,man,combinatie,1,aanzien,0
48,9.804827799991472,79.41743309999583,none,1,700.3689606999978,701.3277234999987,708.5988537999947,714.9532703000004,man,combinatie,2,ego,0
48,9.804827799991472,79.41743309999583,none,1,721.3228709999967,722.5326858999906,727.6635243999917,730.5470090000017,ademen,combinatie,0,ademen,2
48,9.804827799991472,79.41743309999583,none,1,732.8910675999941,734.2872953999904,738.6178613999946,743.048741199993,vallen,combinatie,0,vallen,2
48,9.804827799991472,746.326278499997,practice,0,788.624167099988,793.1218781999924,797.3471130999969,800.7574875999999,juichen,gebaren,0,juichen,0
48,9.804827799991472,746.326278499997,practice,0,801.4010235999885,803.3691640999896,806.6900752999936,808.7090043999924,zwaaien,gebaren,0,groeten,0
48,9.804827799991472,746.326278499997,practice,0,812.2527241999924,815.441663199992,819.6561292999977,823.127619299994,zwaaien,gebaren,1,zwaaien,0
48,9.804827799991472,746.326278499997,none,0,825.4127223999967,827.3517997000017,832.8764580999996,834.3296695999888,boos,gebaren,0,boos,2
48,9.804827799991472,746.326278499997,none,0,835.1728024999902,836.8316708999919,842.8826872999925,844.5651986999874,groot,gebaren,0,hoog,0
48,9.804827799991472,746.326278499997,none,0,847.3581334999908,847.5518604999961,853.6844063999888,855.007306200001,groot,gebaren,1,groot,1
48,9.804827799991472,746.326278499997,none,0,856.6001706999959,859.551401299992,867.4872599999944,868.4596648000006,kat,gebaren,0,kat,2
48,9.804827799991472,746.326278499997,none,0,869.9865572999988,874.7769759999937,883.4536092999915,884.36172049999,vis,gebaren,0,vis,2
48,9.804827799991472,746.326278499997,none,0,885.2469366000005,887.1645833999937,891.3355005999911,893.1720397999889,heet,gebaren,0,verbranden,0
48,9.804827799991472,746.326278499997,none,0,895.7404036999942,896.0007418999885,900.6981379999925,902.4892669999972,heet,gebaren,1,heet,1
48,9.804827799991472,746.326278499997,none,0,903.1662017999915,905.1413234999927,911.7961233999958,920.4756137999939,onweer,gebaren,0,bliksem,0
48,9.804827799991472,746.326278499997,none,0,925.5531518999924,928.0549615999917,936.3678103999991,938.511434,onweer,gebaren,1,onweer,1
48,9.804827799991472,746.326278499997,none,0,939.4218681999919,941.1406886999903,944.2444468999893,945.7708286999987,bijten,gebaren,0,bijten,2
48,9.804827799991472,746.326278499997,practice,1,974.8181848999957,976.4510290999897,981.9193788999983,989.1115191999997,geheim,gebaren,0,stil,0
48,9.804827799991472,746.326278499997,practice,1,997.2140709999949,997.3930400999961,1004.056588099993,1007.1634817000013,geheim,gebaren,1,roddelen,0
48,9.804827799991472,746.326278499997,practice,1,1010.9742629999964,1012.063579499998,1018.3159264999995,1023.4742967999919,geheim,gebaren,2,doorvertellen,0
48,9.804827799991472,746.326278499997,practice,1,1028.7098078999989,1030.0913255999913,1038.7319406999886,1041.4857735999976,klok,gebaren,0,klok,0
48,9.804827799991472,746.326278499997,none,1,1043.8794520999945,1045.343309399992,1050.3182314000005,1056.4209472999937,bitter,gebaren,0,vies,0
48,9.804827799991472,746.326278499997,none,1,1059.923311599996,1060.928208199999,1067.6278597999917,1081.5412458999926,bitter,gebaren,1,proeven,0
48,9.804827799991472,746.326278499997,none,1,1085.4771327999915,1092.4678570999968,1100.3187952000007,1106.9950377999921,bitter,gebaren,2,beoordelen,0
48,9.804827799991472,746.326278499997,none,1,1112.4232616999943,1113.955267799989,1120.5742313999945,1122.722485099992,berg,gebaren,0,dak,0
48,9.804827799991472,746.326278499997,none,1,1126.1499916999892,1127.4250792999956,1133.9804053999978,1137.5582553999993,berg,gebaren,1,ver,0
48,9.804827799991472,746.326278499997,none,1,1141.327377099995,1141.5862070000003,1151.3903165999945,1158.2862175999908,berg,gebaren,2,verbaasd,0
48,9.804827799991472,746.326278499997,none,1,1164.0978502999933,1165.1497018999944,1170.6515413999878,1172.5548286999983,regen,gebaren,0,regen,2
48,9.804827799991472,746.326278499997,none,1,1174.1984229999944,1175.25572429999,1179.712805999996,1181.9398281999893,sterk,gebaren,0,sterk,2
48,9.804827799991472,746.326278499997,none,1,1182.724833699991,1183.918981499999,1189.378538799996,1191.3662194999924,eten,gebaren,0,eten,2
48,9.804827799991472,746.326278499997,none,1,1193.2432989999943,1194.452996299995,1199.1550392999925,1202.1434853999963,geven,gebaren,0,uitdelen,0
48,9.804827799991472,746.326278499997,none,1,1206.8957092999917,1207.1873093999893,1212.5625624999957,1224.4961509999994,geven,gebaren,1,verzorgen,0
48,9.804827799991472,746.326278499997,none,1,1229.5821320999967,1231.1837663999904,1237.6903667000006,1243.023988999994,geven,gebaren,2,weggeven,0
48,9.804827799991472,746.326278499997,none,1,1247.376666199998,1249.0068303000007,1254.599551899999,1256.9760387999995,slapen,gebaren,0,slapen,2
48,9.804827799991472,1260.1448074999935,practice,0,1302.7511968999897,1309.456827899994,1316.5896732999972,1324.0445699999982,sneeuw,geluiden,0,dier,0
48,9.804827799991472,1260.1448074999935,practice,0,1329.5306292999885,1337.6476354999904,1342.757966499994,1359.9414484000008,sneeuw,geluiden,1,onweer,0
48,9.804827799991472,1260.1448074999935,practice,0,1365.0359576999908,1372.972247599988,1381.7301990999986,1382.77833429999,sneeuw,geluiden,2,eten,0
48,9.804827799991472,1260.1448074999935,practice,0,1387.156172899995,1391.704083299992,1397.8104336999968,1399.7557451999892,fiets,geluiden,0,fietsen,0
48,9.804827799991472,1260.1448074999935,none,0,1405.73351559999,1407.9867680999887,1412.9503568999935,1414.3411911000003,koud,geluiden,0,koud,2
48,9.804827799991472,1260.1448074999935,none,0,1414.8515459999908,1416.3868806999963,1419.8704453999962,1420.9423115999962,hond,geluiden,0,hond,2
48,9.804827799991472,1260.1448074999935,none,0,1423.2195685999905,1425.9267573999969,1429.5364774999907,1438.2031486999913,luidruchtig,geluiden,0,oud,0
48,9.804827799991472,1260.1448074999935,none,0,1441.7059623999958,1444.9144188999926,1451.6168416,1462.8235904999892,luidruchtig,geluiden,1,praten,0
48,9.804827799991472,1260.1448074999935,none,0,1467.2182821999886,1471.773369699993,1480.86634529999,1494.7051049000002,luidruchtig,geluiden,2,pas,0
48,9.804827799991472,1260.1448074999935,none,0,1499.8227826999937,1504.5365166999982,1510.2473396999994,1512.556002799989,zuur,geluiden,0,vies,0
48,9.804827799991472,1260.1448074999935,none,0,1516.9166809000017,1520.4950159,1524.4900191999914,1527.8918301999947,zuur,geluiden,1,eten,0
48,9.804827799991472,1260.1448074999935,none,0,1532.344671999992,1533.8234853999893,1542.789306199993,1544.5859898999915,zuur,geluiden,2,pittig,0
48,9.804827799991472,1260.1448074999935,none,0,1550.5974024999887,1557.0322455999994,1561.8813711999974,1568.572748999999,springen,geluiden,0,uitgeput,0
48,9.804827799991472,1260.1448074999935,none,0,1573.117195999992,1576.6118079000007,1580.9891693999962,1585.9591280999884,springen,geluiden,1,zwaar,0
48,9.804827799991472,1260.1448074999935,none,0,1592.1779158999998,1593.3502331999916,1601.3556543000013,1603.9114625999937,springen,geluiden,2,groot,0
48,9.804827799991472,1260.1448074999935,none,0,1608.8307248999918,1614.9432884999987,1622.490888100001,1631.1574149999942,staan,geluiden,0,lopen,0
48,9.804827799991472,1260.1448074999935,none,0,1635.6096461999987,1637.6156220999983,1643.3966003999958,1644.9092553999944,staan,geluiden,1,wind,0
48,9.804827799991472,1260.1448074999935,none,0,1650.3538737999916,1656.6287230999878,1663.9557351999974,1669.3546422999934,staan,geluiden,2,lucht,0
48,9.804827799991472,1260.1448074999935,none,0,1674.1659196999972,1677.496928499997,1681.6609485999943,1683.3232333999913,lopen,geluiden,0,lopen,2
48,9.804827799991472,1260.1448074999935,practice,1,1719.63050069999,1721.3103598000016,1724.5152235999994,1726.796677499995,eend,geluiden,0,eend,0
48,9.804827799991472,1260.1448074999935,practice,1,1727.532221699992,1729.0650619999942,1732.8005056999973,1742.1321089999983,glimlach,geluiden,0,denken,0
48,9.804827799991472,1260.1448074999935,practice,1,1745.7433598999924,1746.7194754999946,1750.587105300001,1758.1680863999936,glimlach,geluiden,1,weten,0
48,9.804827799991472,1260.1448074999935,practice,1,1763.646542699993,1764.7879191999964,1769.9991248000006,1774.062733499988,glimlach,geluiden,2,verbaasd,0
48,9.804827799991472,1260.1448074999935,none,1,1780.7229916999931,1782.124837299998,1787.4365271999995,1790.5979236999992,kind,geluiden,0,baby,0
48,9.804827799991472,1260.1448074999935,none,1,1795.0677353999927,1796.066235499995,1799.9016407000017,1806.6266055000015,kind,geluiden,1,kind,1
48,9.804827799991472,1260.1448074999935,none,1,1808.4104564000008,1810.7921119999955,1814.997086999996,1820.1606048999965,misschien,geluiden,0,twijfelen,0
48,9.804827799991472,1260.1448074999935,none,1,1824.0133714999974,1825.0262261999887,1830.6939175000007,1835.2878781999898,misschien,geluiden,1,nadenken,0
48,9.804827799991472,1260.1448074999935,none,1,1839.7659442000004,1840.8406969999924,1848.2087610000017,1853.2322327000002,misschien,geluiden,2,beslissen,0
48,9.804827799991472,1260.1448074999935,none,1,1856.5512144999957,1858.1395504999964,1863.7814274999982,1867.7094012999878,ziek,geluiden,0,ziek,2
48,9.804827799991472,1260.1448074999935,none,1,1871.5692288999999,1872.744298199992,1878.6405978999974,1881.0613937000016,blazen,geluiden,0,blazen,2
48,9.804827799991472,1260.1448074999935,none,1,1883.2135445999884,1887.3708880999911,1893.6367628000007,1896.3718758999894,kruipen,geluiden,0,baby,0
48,9.804827799991472,1260.1448074999935,none,1,1899.9992911000008,1900.3645483,1904.7147244999942,1916.025032599995,kruipen,geluiden,1,motor,0
48,9.804827799991472,1260.1448074999935,none,1,1919.910918099995,1920.6881779999967,1926.5932724999875,1932.152409199989,kruipen,geluiden,2,overlast,0
48,9.804827799991472,1260.1448074999935,none,1,1936.5884941999975,1942.6158883999888,1949.6945833999926,1953.4061149999907,jagen,geluiden,0,indiaan,0
48,9.804827799991472,1260.1448074999935,none,1,1958.207995699995,1958.692937499989,1965.5049419999996,1974.5338470999995,jagen,geluiden,1,schieten,0
48,9.804827799991472,1260.1448074999935,none,1,1979.5699075000011,1980.3854782999988,1986.9933779999992,1990.4710048999987,jagen,geluiden,2,vuurwerk,0
48,9.804827799991472,1260.1448074999935,none,1,1994.3971060999902,1995.9231023999891,2000.1545382999902,2012.739560899994,water,geluiden,0,tractor,0
48,9.804827799991472,1260.1448074999935,none,1,2018.6340339999879,2019.7838802999904,2025.1219855999952,2029.2673301999894,water,geluiden,1,schenken,0
48,9.804827799991472,1260.1448074999935,none,1,2033.8863095999986,2034.2673709999945,2041.051641699989,2051.086997999999,water,geluiden,2,vooruit,0
