ID,exp_start,block_start,practice,cycle,display_start,trial_start,trial_end,RT,word,modality,correction,answer,points
63,416.70905219999986,448.48725040000045,practice,0,528.2071464999999,531.7648231000003,542.8392002,548.9833998000004,dansen,gebaren,,dansen,0
63,416.70905219999986,448.48725040000045,practice,0,549.0350307999997,554.2742958999997,561.2097951000005,564.5526356999999,comfortabel,gebaren,,relaxen,0
63,416.70905219999986,448.48725040000045,none,0,568.1966663000003,570.0839044000004,580.4959187000004,585.6804635999997,vlieg,gebaren,,vliegen,0
63,416.70905219999986,448.48725040000045,none,0,585.7238585000005,591.1531835000005,596.9840449000003,600.8995202000006,hoorn,gebaren,,eenhoorn,0
63,416.70905219999986,448.48725040000045,none,0,600.9427009999999,604.0515436000005,608.7991189000004,612.2511598000001,oud,gebaren,,oud,1
63,416.70905219999986,448.48725040000045,none,0,612.2860638000002,614.7792639999998,621.9492614000001,625.8368593000005,verdrietig,gebaren,,verdrietig,1
63,416.70905219999986,448.48725040000045,none,0,625.8799819000005,628.3440799999998,633.3501009000001,636.0380894999998,bijten,gebaren,,bijten,1
63,416.70905219999986,448.48725040000045,none,0,636.0728086999998,638.7990384000004,643.7183556,646.4903609000003,vangen,gebaren,,vangen,1
63,416.70905219999986,448.48725040000045,none,0,646.5328810000001,654.3929642000003,666.2339344000002,678.4359528000005,zuigen,gebaren,,zuigen,1
63,416.70905219999986,448.48725040000045,practice,1,787.9616785999997,792.1141588999999,796.3934208999999,803.8544315999998,snijden,gebaren,,snijden,0
63,416.70905219999986,448.48725040000045,practice,1,803.8980449000001,807.6165370999997,820.5192808000002,823.9991596,rijk,gebaren,,geld,0
63,416.70905219999986,448.48725040000045,none,1,829.0513417000002,832.0798316,837.9998095000001,842.1101547999997,walgen,gebaren,,walging,0
63,416.70905219999986,448.48725040000045,none,1,842.1451030999997,844.7207988999999,850.6491415,854.6619565000001,hoog,gebaren,,hoog,1
63,416.70905219999986,448.48725040000045,none,1,854.6969804999999,856.1628228999998,861.0232912000001,863.9550122,niet,gebaren,,nee,0
63,416.70905219999986,448.48725040000045,none,1,863.9985360999999,866.9599755999998,872.7030058999999,899.5601412000005,geur,gebaren,,geur,1
63,416.70905219999986,448.48725040000045,none,1,899.6027773000005,902.6395223,908.3619137000005,910.720276,huilen,gebaren,,huilen,1
63,416.70905219999986,448.48725040000045,none,1,910.7552280999998,912.6675950999997,919.1420226999999,921.5058845000003,jagen,gebaren,,schieten,0
63,416.70905219999986,448.48725040000045,none,1,921.5488922000004,924.5281455000004,929.6047911000005,932.8735428999998,fluisteren,gebaren,,fluisteren,1
63,416.70905219999986,957.5042082999998,practice,0,1051.3924115,1055.7301083000002,1060.5582242,1067.4350918,knippen,combinatie,,knippen,0
63,416.70905219999986,957.5042082999998,practice,0,1067.4867431000002,1072.8417928999997,1079.1257844000002,1083.9707773,haasten,combinatie,,haasten,0
63,416.70905219999986,957.5042082999998,none,0,1086.6224379000005,1089.9823199000002,1098.9249669,1101.0818600000002,zuur,combinatie,,zuur,1
63,416.70905219999986,957.5042082999998,none,0,1101.1166389,1103.9908726000003,1110.6763068,1115.8256006000001,staart,combinatie,,staart,1
63,416.70905219999986,957.5042082999998,none,0,1115.8687704000004,1118.3404157000004,1123.4203448999997,1136.2368879000005,dik,combinatie,,dik,1
63,416.70905219999986,957.5042082999998,none,0,1136.2801792999999,1140.0323018,1149.7798517,1154.4812137999998,verbranden,combinatie,,verbranden,1
63,416.70905219999986,957.5042082999998,none,0,1154.5160246000005,1157.6971126999997,1164.9539541000004,1169.5084404999998,horen,combinatie,,luisteren,0
63,416.70905219999986,957.5042082999998,none,0,1169.5433930999998,1172.0545111000001,1177.9358854000002,1182.0685973,springen,combinatie,,stuiteren,0
63,416.70905219999986,957.5042082999998,none,0,1182.1034563000003,1184.2049427000002,1189.8033652000004,1193.2619246000004,kotsen,combinatie,,overgeven,0
63,416.70905219999986,957.5042082999998,practice,1,1246.6799111,1249.9820354000003,1256.4688633000005,1258.9383517000006,auto,combinatie,,auto,0
63,416.70905219999986,957.5042082999998,practice,1,1258.9895692,1263.8508922,1271.8750716000004,1274.8490717000004,bloem,combinatie,,bloemen,0
63,416.70905219999986,957.5042082999998,none,1,1277.7511394000003,1281.2008112000003,1284.7970381000005,1286.9508154000005,ik,combinatie,,ik,1
63,416.70905219999986,957.5042082999998,none,1,1286.9856639999998,1289.7987462,1296.1046821,1304.2784468999998,ver,combinatie,,verderop,0
63,416.70905219999986,957.5042082999998,none,1,1304.3211895000004,1310.0089613,1321.9496796000003,1332.4742121999998,vrouw,combinatie,,uiterlijk,0
63,416.70905219999986,957.5042082999998,none,1,1332.5092077,1336.0777147999997,1339.8668776000004,1341.9089621000003,slang,combinatie,,slang,1
63,416.70905219999986,957.5042082999998,none,1,1341.9437632,1350.2048799000004,1355.7721099999999,1361.8369180999998,zoet,combinatie,,chocola,0
63,416.70905219999986,957.5042082999998,none,1,1361.8803718,1365.8420097999997,1371.8047336,1373.7554953999997,staan,combinatie,,staan,1
63,416.70905219999986,957.5042082999998,none,1,1373.7903281999997,1378.6401403,1390.5960919,1392.5747453000004,water,combinatie,,kraan,0
63,416.70905219999986,1395.9271451000004,practice,0,1472.3547635000004,1482.1338301000005,1486.9854873000004,1491.7228679,gek,geluiden,,schrikken,0
63,416.70905219999986,1395.9271451000004,practice,0,1491.7659025000003,1505.4375306000002,1530.5466842000005,1534.1040353999997,leeg,geluiden,,leeg,0
63,416.70905219999986,1395.9271451000004,none,0,1542.5068454000002,1557.8904402999997,1564.8828650000005,1569.5425826,kind,geluiden,,vieren,0
63,416.70905219999986,1395.9271451000004,none,0,1569.5859707,1571.2436665000005,1573.5094685000004,1576.9020037999999,hond,geluiden,,blaffen,0
63,416.70905219999986,1395.9271451000004,none,0,1576.9452889000004,1578.6611254,1584.2744192999999,1587.1957868,misschien,geluiden,,verward,0
63,416.70905219999986,1395.9271451000004,none,0,1587.2385664000003,1600.1200133000002,1608.8586986999999,1616.3161347000005,berg,geluiden,,stampen,0
63,416.70905219999986,1395.9271451000004,none,0,1616.3509200999997,1618.6731277999997,1621.3489041000003,1623.6762301999997,stil,geluiden,,stil,1
63,416.70905219999986,1395.9271451000004,none,0,1623.7189740000003,1626.2041097000001,1632.9729206000002,1634.8439065000002,langzaam,geluiden,,rust,0
63,416.70905219999986,1395.9271451000004,none,0,1634.8870986000002,1636.6183716000005,1640.1541195999998,1647.2207553999997,grommen,geluiden,,eng,0
63,416.70905219999986,1395.9271451000004,practice,1,1697.7464422000003,1700.8934877000002,1710.3282373000002,1713.0552472,koken,geluiden,,eten,0
63,416.70905219999986,1395.9271451000004,practice,1,1713.0987876,1716.3182551999998,1721.1784875000003,1746.3104748000005,olifant,geluiden,,trompetteren,0
63,416.70905219999986,1395.9271451000004,none,1,1761.2812575999997,1768.0250618,1771.2519945000004,1787.6414665000002,bitter,geluiden,,niet lekker,0
63,416.70905219999986,1395.9271451000004,none,1,1787.6765382000003,1789.7340326000003,1792.2682835000005,1796.8928041,kat,geluiden,,poes,0
63,416.70905219999986,1395.9271451000004,none,1,1796.9283154000004,1802.2272007000001,1806.7076798999997,1833.1899006000003,dood,geluiden,,neurien,0
63,416.70905219999986,1395.9271451000004,none,1,1833.2330708,1837.8134615999998,1842.2718508999997,1855.3187275999999,man,geluiden,,chagrijnig,0
63,416.70905219999986,1395.9271451000004,none,1,1855.3529642000003,1859.7882700999999,1863.5558699000003,1874.0624839000002,klein,geluiden,,piepen,0
63,416.70905219999986,1395.9271451000004,none,1,1874.0975218000003,1878.7184343999998,1884.3008181000005,1890.6566515000004,likken,geluiden,,zuigen,0
63,416.70905219999986,1395.9271451000004,none,1,1890.7001637000003,1892.6953845999997,1895.6215886,1899.2829013,ruiken,geluiden,,snikken,0
